timestamp_sec,flight_state,fault_type,fault_motor_health,cf1_X,cf1_Y,cf1_Z,cf1_VelX,cf1_VelY,cf1_VelZ,cf1_Roll,cf1_Pitch,cf1_Yaw,cf1_GyroX,cf1_GyroY,cf1_GyroZ,cf1_Motor1,cf1_Motor2,cf1_Motor3,cf1_Motor4,cf1_targ_x,cf1_targ_y,cf1_targ_z,cf2_X,cf2_Y,cf2_Z,cf2_VelX,cf2_VelY,cf2_VelZ,cf2_Roll,cf2_Pitch,cf2_Yaw,cf2_GyroX,cf2_GyroY,cf2_GyroZ,cf2_Motor1,cf2_Motor2,cf2_Motor3,cf2_Motor4,cf2_targ_x,cf2_targ_y,cf2_targ_z,cf3_X,cf3_Y,cf3_Z,cf3_VelX,cf3_VelY,cf3_VelZ,cf3_Roll,cf3_Pitch,cf3_Yaw,cf3_GyroX,cf3_GyroY,cf3_GyroZ,cf3_Motor1,cf3_Motor2,cf3_Motor3,cf3_Motor4,cf3_targ_x,cf3_targ_y,cf3_targ_z
0.009,TAKEOFF,incipient,1.0,0.5909240245819092,0.01271150540560484,-0.0005539891426451504,0.0206646379083395,0.004034080076962709,0.0021402083802968264,0.24362896382808685,0.05175890028476715,1.3482046127319336,0.020553013309836388,-0.0658910796046257,0.07907446473836899,0.0,0.0,0.0,0.0,-0.19384811672535024,0.5678229544867264,0.5,-0.4344542324542999,0.6879323124885559,0.002324899425730109,0.017554163932800293,-0.014554372988641262,-0.0014338266337290406,-0.9547387361526489,-1.8999764919281006,4.504867076873779,0.011501775123178959,-0.008458318188786507,0.04951975494623184,0.0,0.0,0.0,0.0,-0.39356453752582976,-0.4528873533253934,0.5,-0.41471993923187256,-0.577741801738739,0.0049583218060433865,-0.007225170265883207,0.0071126194670796394,-0.006097989622503519,0.20267270505428314,-0.30794018507003784,-6.1734771728515625,0.08685492724180222,0.12347320467233658,0.02687681093811989,0.0,0.0,0.0,0.0,0.5893107080163837,-0.11275144973448667,0.5
0.027,TAKEOFF,incipient,1.0,0.5909240245819092,0.01271150540560484,-0.0005539891426451504,0.0206646379083395,0.004034080076962709,0.0021402083802968264,0.24362896382808685,0.05175890028476715,1.3482046127319336,0.020553013309836388,-0.0658910796046257,0.07907446473836899,0.0,0.0,0.0,0.0,-0.208026562264923,0.5627832170491921,0.5,-0.4344542324542999,0.6879323124885559,0.002324899425730109,0.017596757039427757,-0.009108716621994972,-0.006674556992948055,-0.9804627299308777,-1.9009875059127808,4.392819404602051,-0.13565482199192047,0.24540142714977264,0.08216269314289093,0.0,0.0,0.0,0.0,-0.3820836236529095,-0.46261442318226725,0.5,-0.41471993923187256,-0.577741801738739,0.0049583218060433865,-0.007225170265883207,0.0071126194670796394,-0.006097989622503519,0.20267270505428314,-0.30794018507003784,-6.1734771728515625,0.08685492724180222,0.12347320467233658,0.02687681093811989,0.0,0.0,0.0,0.0,0.5919528703859408,-0.0979377314513947,0.5
0.049,TAKEOFF,incipient,1.0,0.5909240245819092,0.01271150540560484,-0.0005539891426451504,0.0206646379083395,0.004034080076962709,0.0021402083802968264,0.24362896382808685,0.05175890028476715,1.3482046127319336,0.020553013309836388,-0.0658910796046257,0.07907446473836899,0.0,0.0,0.0,0.0,-0.21740671680352305,0.5592265368244901,0.5,-0.4324573278427124,0.7170785069465637,0.0009407561738044024,-0.009096848778426647,0.000914130243472755,-0.0005400387453846633,-1.1258203983306885,-1.6574504375457764,4.4041314125061035,0.02199460379779339,0.07662155479192734,-0.034262120723724365,0.0,0.0,0.0,0.0,-0.37429571955970237,-0.4689378576307148,0.5,-0.41471993923187256,-0.577741801738739,0.0049583218060433865,-0.007225170265883207,0.0071126194670796394,-0.006097989622503519,0.20267270505428314,-0.30794018507003784,-6.1734771728515625,0.08685492724180222,0.12347320467233658,0.02687681093811989,0.0,0.0,0.0,0.0,0.5935075619069955,-0.08802712058913362,0.5
0.069,TAKEOFF,incipient,1.0,0.5909240245819092,0.01271150540560484,-0.0005539891426451504,0.0206646379083395,0.004034080076962709,0.0021402083802968264,0.24362896382808685,0.05175890028476715,1.3482046127319336,0.020553013309836388,-0.0658910796046257,0.07907446473836899,0.0,0.0,0.0,0.0,-0.22207416645209682,0.557389508866651,0.5,-0.4324573278427124,0.7170785069465637,0.0009407561738044024,-0.0034447128418833017,-0.004238493740558624,-0.005987015552818775,-1.1258203983306885,-1.6574504375457764,4.4041314125061035,0.02199460379779339,0.07662155479192734,-0.034262120723724365,0.0,0.0,0.0,0.0,-0.37036239269017174,-0.4720505249237744,0.5,-0.41471993923187256,-0.577741801738739,0.0049583218060433865,-0.007225170265883207,0.0071126194670796394,-0.006097989622503519,0.20267270505428314,-0.30794018507003784,-6.1734771728515625,0.08685492724180222,0.12347320467233658,0.02687681093811989,0.0,0.0,0.0,0.0,0.5942227153299036,-0.08306241379803739,0.5
0.087,TAKEOFF,incipient,1.0,0.5909240245819092,0.01271150540560484,-0.0005539891426451504,0.0206646379083395,0.004034080076962709,0.0021402083802968264,0.24362896382808685,0.05175890028476715,1.3482046127319336,0.020553013309836388,-0.0658910796046257,0.07907446473836899,0.0,0.0,0.0,0.0,-0.22672609573324665,0.5555135259501416,0.5,-0.4324573278427124,0.7170785069465637,0.0009407561738044024,-0.00015396338130813092,-0.006651757284998894,-0.009561371058225632,-1.0684367418289185,-1.7124474048614502,4.37188720703125,-0.1908154934644699,0.17252002656459808,0.15191550552845,0.0,0.0,0.0,0.0,-0.3664031818535576,-0.4751302014475493,0.5,-0.41471993923187256,-0.577741801738739,0.0049583218060433865,-0.007225170265883207,0.0071126194670796394,-0.006097989622503519,0.20267270505428314,-0.30794018507003784,-6.1734771728515625,0.08685492724180222,0.12347320467233658,0.02687681093811989,0.0,0.0,0.0,0.0,0.5948963395870336,-0.07809190192298264,0.5
0.109,TAKEOFF,incipient,1.0,0.5909240245819092,0.01271150540560484,-0.0005539891426451504,0.0206646379083395,0.004034080076962709,0.0021402083802968264,0.24362896382808685,0.05175890028476715,1.3482046127319336,0.020553013309836388,-0.0658910796046257,0.07907446473836899,0.0,0.0,0.0,0.0,-0.22672609573324665,0.5555135259501416,0.5,-0.4324573278427124,0.7170785069465637,0.0009407561738044024,-0.00014218442083802074,-0.006618876475840807,-0.009969989769160748,-1.0411616563796997,-1.7440000772476196,4.330592632293701,-0.06972872465848923,0.027195902541279793,0.3360474705696106,0.0,0.0,0.0,0.0,-0.3664031818535576,-0.4751302014475493,0.5,-0.41471993923187256,-0.577741801738739,0.0049583218060433865,-0.007225170265883207,0.0071126194670796394,-0.006097989622503519,0.20267270505428314,-0.30794018507003784,-6.1734771728515625,0.08685492724180222,0.12347320467233658,0.02687681093811989,0.0,0.0,0.0,0.0,0.5948963395870336,-0.07809190192298264,0.5
0.132,TAKEOFF,incipient,1.0,0.5909240245819092,0.01271150540560484,-0.0005539891426451504,0.0206646379083395,0.004034080076962709,0.0021402083802968264,0.24362896382808685,0.05175890028476715,1.3482046127319336,0.020553013309836388,-0.0658910796046257,0.07907446473836899,0.0,0.0,0.0,0.0,-0.23136217953193175,0.5535987191840622,0.5,-0.4324573278427124,0.7170785069465637,0.0009407561738044024,-0.0004246746248099953,-0.006635844707489014,-0.009928957559168339,-1.0411616563796997,-1.7440000772476196,4.330592632293701,-0.06972872465848923,0.027195902541279793,0.3360474705696106,0.0,0.0,0.0,0.0,-0.3624183637520438,-0.47817667196894,0.5,-0.41471993923187256,-0.577741801738739,0.0049583218060433865,-0.007225170265883207,0.0071126194670796394,-0.006097989622503519,0.20267270505428314,-0.30794018507003784,-6.1734771728515625,0.08685492724180222,0.12347320467233658,0.02687681093811989,0.0,0.0,0.0,0.0,0.5955283875999878,-0.07311593234417947,0.5
0.149,TAKEOFF,incipient,1.0,0.5909240245819092,0.01271150540560484,-0.0005539891426451504,0.0206646379083395,0.004034080076962709,0.0021402083802968264,0.24362896382808685,0.05175890028476715,1.3482046127319336,0.020553013309836388,-0.0658910796046257,0.07907446473836899,0.0,0.0,0.0,0.0,-0.2359820938405239,0.5516452223908426,0.5,-0.4324573278427124,0.7170785069465637,0.0009407561738044024,-0.0004246746248099953,-0.006635844707489014,-0.009928957559168339,-1.0411616563796997,-1.7440000772476196,4.330592632293701,-0.06972872465848923,0.027195902541279793,0.3360474705696106,0.0,0.0,0.0,0.0,-0.3584082168774607,-0.481189723575555,0.5,-0.41471993923187256,-0.577741801738739,0.0049583218060433865,-0.007225170265883207,0.0071126194670796394,-0.006097989622503519,0.20267270505428314,-0.30794018507003784,-6.1734771728515625,0.08685492724180222,0.12347320467233658,0.02687681093811989,0.0,0.0,0.0,0.0,0.5961188151960578,-0.06813485282326702,0.5
0.168,TAKEOFF,incipient,1.0,0.5909240245819092,0.01271150540560484,-0.0005539891426451504,0.0206646379083395,0.004034080076962709,0.0021402083802968264,0.24362896382808685,0.05175890028476715,1.3482046127319336,0.020553013309836388,-0.0658910796046257,0.07907446473836899,0.0,0.0,0.0,0.0,-0.2405855157814517,0.5496531720968895,0.5,-0.4324573278427124,0.7170785069465637,0.0009407561738044024,-0.0004246746248099953,-0.006635844707489014,-0.009928957559168339,-1.0411616563796997,-1.7440000772476196,4.330592632293701,-0.06972872465848923,0.027195902541279793,0.3360474705696106,0.0,0.0,0.0,0.0,-0.35437302149182126,-0.48416914569059144,0.5,-0.41471993923187256,-0.577741801738739,0.0049583218060433865,-0.007225170265883207,0.0071126194670796394,-0.006097989622503519,0.20267270505428314,-0.30794018507003784,-6.1734771728515625,0.08685492724180222,0.12347320467233658,0.02687681093811989,0.0,0.0,0.0,0.0,0.5966675811113119,-0.06314901147900931,0.5
0.188,TAKEOFF,incipient,1.0,0.5909240245819092,0.01271150540560484,-0.0005539891426451504,0.0206646379083395,0.004034080076962709,0.0021402083802968264,0.24362896382808685,0.05175890028476715,1.3482046127319336,0.020553013309836388,-0.0658910796046257,0.07907446473836899,0.0,0.0,0.0,0.0,-0.2451721236297659,0.5476227075230452,0.5,-0.4324573278427124,0.7170785069465637,0.0009407561738044024,-0.0004246746248099953,-0.006635844707489014,-0.009928957559168339,-1.0411616563796997,-1.7440000772476196,4.330592632293701,-0.06972872465848923,0.027195902541279793,0.3360474705696106,0.0,0.0,0.0,0.0,-0.3503130596077341,-0.4871147300875514,0.5,-0.41471993923187256,-0.577741801738739,0.0049583218060433865,-0.007225170265883207,0.0071126194670796394,-0.006097989622503519,0.20267270505428314,-0.30794018507003784,-6.1734771728515625,0.08685492724180222,0.12347320467233658,0.02687681093811989,0.0,0.0,0.0,0.0,0.5971746469934789,-0.05815875676296561,0.5
0.207,TAKEOFF,incipient,1.0,0.5909240245819092,0.01271150540560484,-0.0005539891426451504,0.0206646379083395,0.004034080076962709,0.0021402083802968264,0.24362896382808685,0.05175890028476715,1.3482046127319336,0.020553013309836388,-0.0658910796046257,0.07907446473836899,0.0,0.0,0.0,0.0,-0.25429361604669404,0.543447105832662,0.5,-0.4324573278427124,0.7170785069465637,0.0009407561738044024,-0.0004246746248099953,-0.006635844707489014,-0.009928957559168339,-1.0411616563796997,-1.7440000772476196,4.330592632293701,-0.06972872465848923,0.027195902541279793,0.3360474705696106,0.0,0.0,0.0,0.0,-0.34211997302925373,-0.4929035646599269,0.5,-0.41471993923187256,-0.577741801738739,0.0049583218060433865,-0.007225170265883207,0.0071126194670796394,-0.006097989622503519,0.20267270505428314,-0.30794018507003784,-6.1734771728515625,0.08685492724180222,0.12347320467233658,0.02687681093811989,0.0,0.0,0.0,0.0,0.5980635398236491,-0.04816640253959668,0.5
0.227,TAKEOFF,incipient,1.0,0.5909240245819092,0.01271150540560484,-0.0005539891426451504,0.0206646379083395,0.004034080076962709,0.0021402083802968264,0.24362896382808685,0.05175890028476715,1.3482046127319336,0.020553013309836388,-0.0658910796046257,0.07907446473836899,0.0,0.0,0.0,0.0,-0.258827863130471,0.541302260541478,0.5,-0.4324573278427124,0.7170785069465637,0.0009407561738044024,-0.0004246746248099953,-0.006635844707489014,-0.009928957559168339,-1.0411616563796997,-1.7440000772476196,4.330592632293701,-0.06972872465848923,0.027195902541279793,0.3360474705696106,0.0,0.0,0.0,0.0,-0.3379874209350689,-0.49574641026401844,0.5,-0.41471993923187256,-0.577741801738739,0.0049583218060433865,-0.007225170265883207,0.0071126194670796394,-0.006097989622503519,0.20267270505428314,-0.30794018507003784,-6.1734771728515625,0.08685492724180222,0.12347320467233658,0.02687681093811989,0.0,0.0,0.0,0.0,0.5984453046485176,-0.04316500138008673,0.5
0.247,TAKEOFF,incipient,1.0,0.5909240245819092,0.01271150540560484,-0.0005539891426451504,0.0206646379083395,0.004034080076962709,0.0021402083802968264,0.24362896382808685,0.05175890028476715,1.3482046127319336,0.020553013309836388,-0.0658910796046257,0.07907446473836899,0.0,0.0,0.0,0.0,-0.26334402119651334,0.5391195846007176,0.5,-0.4324573278427124,0.7170785069465637,0.0009407561738044024,-0.0004246746248099953,-0.006635844707489014,-0.009928957559168339,-1.0411616563796997,-1.7440000772476196,4.330592632293701,-0.06972872465848923,0.027195902541279793,0.3360474705696106,0.0,0.0,0.0,0.0,-0.3338312475028357,-0.4985546090356606,0.5,-0.41471993923187256,-0.577741801738739,0.0049583218060433865,-0.007225170265883207,0.0071126194670796394,-0.006097989622503519,0.20267270505428314,-0.30794018507003784,-6.1734771728515625,0.08685492724180222,0.12347320467233658,0.02687681093811989,0.0,0.0,0.0,0.0,0.5987852451983717,-0.03816058349561512,0.5
0.268,TAKEOFF,incipient,1.0,0.5909240245819092,0.01271150540560484,-0.0005539891426451504,0.0206646379083395,0.004034080076962709,0.0021402083802968264,0.24362896382808685,0.05175890028476715,1.3482046127319336,0.020553013309836388,-0.0658910796046257,0.07907446473836899,0.0,0.0,0.0,0.0,-0.2678417746185885,0.5368992305537094,0.5,-0.4324573278427124,0.7170785069465637,0.0009407561738044024,-0.0004246746248099953,-0.006635844707489014,-0.009928957559168339,-1.0411616563796997,-1.7440000772476196,4.330592632293701,-0.06972872465848923,0.027195902541279793,0.3360474705696106,0.0,0.0,0.0,0.0,-0.32965174320010265,-0.5013279647148496,0.5,-0.41471993923187256,-0.577741801738739,0.0049583218060433865,-0.007225170265883207,0.0071126194670796394,-0.006097989622503519,0.20267270505428314,-0.30794018507003784,-6.1734771728515625,0.08685492724180222,0.12347320467233658,0.02687681093811989,0.0,0.0,0.0,0.0,0.5990833377153726,-0.03315349863602245,0.5
0.288,TAKEOFF,incipient,1.0,0.5909240245819092,0.01271150540560484,-0.0005539891426451504,0.0206646379083395,0.004034080076962709,0.0021402083802968264,0.24362896382808685,0.05175890028476715,1.3482046127319336,0.020553013309836388,-0.0658910796046257,0.07907446473836899,0.0,0.0,0.0,0.0,-0.2723208090567314,0.5346413535770378,0.5,-0.4324573278427124,0.7170785069465637,0.0009407561738044024,-0.0004246746248099953,-0.006635844707489014,-0.009928957559168339,-1.0411616563796997,-1.7440000772476196,4.330592632293701,-0.06972872465848923,0.027195902541279793,0.3360474705696106,0.0,0.0,0.0,0.0,-0.32544920012497136,-0.5040662834767033,0.5,-0.41471993923187256,-0.577741801738739,0.0049583218060433865,-0.007225170265883207,0.0071126194670796394,-0.006097989622503519,0.20267270505428314,-0.30794018507003784,-6.1734771728515625,0.08685492724180222,0.12347320467233658,0.02687681093811989,0.0,0.0,0.0,0.0,0.599339561366366,-0.028144096737539377,0.5
0.307,TAKEOFF,incipient,1.0,0.5909240245819092,0.01271150540560484,-0.0005539891426451504,0.0206646379083395,0.004034080076962709,0.0021402083802968264,0.24362896382808685,0.05175890028476715,1.3482046127319336,0.020553013309836388,-0.0658910796046257,0.07907446473836899,0.0,0.0,0.0,0.0,-0.2767808114792137,0.5323461114696978,0.5,-0.4324573278427124,0.7170785069465637,0.0009407561738044024,-0.0004246746248099953,-0.006635844707489014,-0.009928957559168339,-1.0411616563796997,-1.7440000772476196,4.330592632293701,-0.06972872465848923,0.027195902541279793,0.3360474705696106,0.0,0.0,0.0,0.0,-0.3212239119856821,-0.5067693739450073,0.5,-0.41471993923187256,-0.577741801738739,0.0049583218060433865,-0.007225170265883207,0.0071126194670796394,-0.006097989622503519,0.20267270505428314,-0.30794018507003784,-6.1734771728515625,0.08685492724180222,0.12347320467233658,0.02687681093811989,0.0,0.0,0.0,0.0,0.5995538982443378,-0.023132727898330322,0.5
0.327,TAKEOFF,incipient,1.0,0.5909240245819092,0.01271150540560484,-0.0005539891426451504,0.0206646379083395,0.004034080076962709,0.0021402083802968264,0.24362896382808685,0.05175890028476715,1.3482046127319336,0.020553013309836388,-0.0658910796046257,0.07907446473836899,0.0,0.0,0.0,0.0,-0.2812214701844203,0.5300136646420667,0.5,-0.4324573278427124,0.7170785069465637,0.0009407561738044024,-0.0004246746248099953,-0.006635844707489014,-0.009928957559168339,-1.0411616563796997,-1.7440000772476196,4.330592632293701,-0.06972872465848923,0.027195902541279793,0.3360474705696106,0.0,0.0,0.0,0.0,-0.3169761740800872,-0.5094370472055897,0.5,-0.41471993923187256,-0.577741801738739,0.0049583218060433865,-0.007225170265883207,0.0071126194670796394,-0.006097989622503519,0.20267270505428314,-0.30794018507003784,-6.1734771728515625,0.08685492724180222,0.12347320467233658,0.02687681093811989,0.0,0.0,0.0,0.0,0.599726333369666,-0.018119742354025685,0.5
0.347,TAKEOFF,incipient,1.0,0.5909240245819092,0.01271150540560484,-0.0005539891426451504,0.0206646379083395,0.004034080076962709,0.0021402083802968264,0.24362896382808685,0.05175890028476715,1.3482046127319336,0.020553013309836388,-0.0658910796046257,0.07907446473836899,0.0,0.0,0.0,0.0,-0.2856424748226344,0.5276441761046934,0.5,-0.4324573278427124,0.7170785069465637,0.0009407561738044024,-0.0004246746248099953,-0.006635844707489014,-0.009928957559168339,-1.0411616563796997,-1.7440000772476196,4.330592632293701,-0.06972872465848923,0.027195902541279793,0.3360474705696106,0.0,0.0,0.0,0.0,-0.31270628327501293,-0.5120691168195239,0.5,-0.41471993923187256,-0.577741801738739,0.0049583218060433865,-0.007225170265883207,0.0071126194670796394,-0.006097989622503519,0.20267270505428314,-0.30794018507003784,-6.1734771728515625,0.08685492724180222,0.12347320467233658,0.02687681093811989,0.0,0.0,0.0,0.0,0.5998568546911671,-0.01310549045324449,0.5
0.367,TAKEOFF,incipient,1.0,0.5909240245819092,0.01271150540560484,-0.0005539891426451504,0.0206646379083395,0.004034080076962709,0.0021402083802968264,0.24362896382808685,0.05175890028476715,1.3482046127319336,0.020553013309836388,-0.0658910796046257,0.07907446473836899,0.0,0.0,0.0,0.0,-0.2900435164177266,0.5252378114569056,0.5,-0.4324573278427124,0.7170785069465637,0.0009407561738044024,-0.0004246746248099953,-0.006635844707489014,-0.009928957559168339,-1.0411616563796997,-1.7440000772476196,4.330592632293701,-0.06972872465848923,0.027195902541279793,0.3360474705696106,0.0,0.0,0.0,0.0,-0.3084145379855124,-0.5146653988361594,0.5,-0.41471993923187256,-0.577741801738739,0.0049583218060433865,-0.007225170265883207,0.0071126194670796394,-0.006097989622503519,0.20267270505428314,-0.30794018507003784,-6.1734771728515625,0.08685492724180222,0.12347320467233658,0.02687681093811989,0.0,0.0,0.0,0.0,0.5999454530869387,-0.008090322633109166,0.5
0.387,TAKEOFF,incipient,1.0,0.5909240245819092,0.01271150540560484,-0.0005539891426451504,0.0206646379083395,0.004034080076962709,0.0021402083802968264,0.24362896382808685,0.05175890028476715,1.3482046127319336,0.020553013309836388,-0.0658910796046257,0.07907446473836899,0.0,0.0,0.0,0.0,-0.29442428738874904,0.5227947388752371,0.5,-0.4324573278427124,0.7170785069465637,0.0009407561738044024,-0.0004246746248099953,-0.006635844707489014,-0.009928957559168339,-1.0411616563796997,-1.7440000772476196,4.330592632293701,-0.06972872465848923,0.027195902541279793,0.3360474705696106,0.0,0.0,0.0,0.0,-0.30410123815400947,-0.5172257118059759,0.5,-0.41471993923187256,-0.577741801738739,0.0049583218060433865,-0.007225170265883207,0.0071126194670796394,-0.006097989622503519,0.20267270505428314,-0.30794018507003784,-6.1734771728515625,0.08685492724180222,0.12347320467233658,0.02687681093811989,0.0,0.0,0.0,0.0,0.5999921223649971,-0.003074589394754107,0.5
0.407,TAKEOFF,incipient,1.0,0.5909240245819092,0.01271150540560484,-0.0005539891426451504,0.0206646379083395,0.004034080076962709,0.0021402083802968264,0.24362896382808685,0.05175890028476715,1.3482046127319336,0.020553013309836388,-0.0658910796046257,0.07907446473836899,0.0,0.0,0.0,0.0,-0.2987844815714317,0.5203151291016731,0.5,-0.4324573278427124,0.7170785069465637,0.0009407561738044024,-0.0004246746248099953,-0.006635844707489014,-0.009928957559168339,-1.0411616563796997,-1.7440000772476196,4.330592632293701,-0.06972872465848923,0.027195902541279793,0.3360474705696106,0.0,0.0,0.0,0.0,-0.29976668522933664,-0.5197498767932666,0.5,-0.41471993923187256,-0.577741801738739,0.0049583218060433865,-0.007225170265883207,0.0071126194670796394,-0.006097989622503519,0.20267270505428314,-0.30794018507003784,-6.1734771728515625,0.08685492724180222,0.12347320467233658,0.02687681093811989,0.0,0.0,0.0,0.0,0.5999968592637096,0.0019413587211702193,0.5
0.427,TAKEOFF,incipient,1.0,0.5909240245819092,0.01271150540560484,-0.0005539891426451504,0.0206646379083395,0.004034080076962709,0.0021402083802968264,0.24362896382808685,0.05175890028476715,1.3482046127319336,0.020553013309836388,-0.0658910796046257,0.07907446473836899,0.0,0.0,0.0,0.0,-0.30312379423957964,0.5177991554317185,0.5,-0.4324573278427124,0.7170785069465637,0.0009407561738044024,-0.0004246746248099953,-0.006635844707489014,-0.009928957559168339,-1.0411616563796997,-1.7440000772476196,4.330592632293701,-0.06972872465848923,0.027195902541279793,0.3360474705696106,0.0,0.0,0.0,0.0,-0.29541118214566714,-0.5222377173886423,0.5,-0.41471993923187256,-0.577741801738739,0.0049583218060433865,-0.007225170265883207,0.0071126194670796394,-0.006097989622503519,0.20267270505428314,-0.30794018507003784,-6.1734771728515625,0.08685492724180222,0.12347320467233658,0.02687681093811989,0.0,0.0,0.0,0.0,0.5999596634520228,0.006957171158995937,0.5
0.447,TAKEOFF,incipient,1.0,0.5909240245819092,0.01271150540560484,-0.0005539891426451504,0.0206646379083395,0.004034080076962709,0.0021402083802968264,0.24362896382808685,0.05175890028476715,1.3482046127319336,0.020553013309836388,-0.0658910796046257,0.07907446473836899,0.0,0.0,0.0,0.0,-0.30744192212636956,0.5152469937022858,0.5,-0.4324573278427124,0.7170785069465637,0.0009407561738044024,-0.0004246746248099953,-0.006635844707489014,-0.009928957559168339,-1.0411616563796997,-1.7440000772476196,4.330592632293701,-0.06972872465848923,0.027195902541279793,0.3360474705696106,0.0,0.0,0.0,0.0,-0.29103503330134345,-0.5246890597213609,0.5,-0.41471993923187256,-0.577741801738739,0.0049583218060433865,-0.007225170265883207,0.0071126194670796394,-0.006097989622503519,0.20267270505428314,-0.30794018507003784,-6.1734771728515625,0.08685492724180222,0.12347320467233658,0.02687681093811989,0.0,0.0,0.0,0.0,0.5998805375294856,0.011972497372537472,0.5
0.468,TAKEOFF,incipient,1.0,0.5909240245819092,0.01271150540560484,-0.0005539891426451504,0.0206646379083395,0.004034080076962709,0.0021402083802968264,0.24362896382808685,0.05175890028476715,1.3482046127319336,0.020553013309836388,-0.0658910796046257,0.07907446473836899,0.0,0.0,0.0,0.0,-0.3117385634455449,0.5126588222794064,0.5,-0.4324573278427124,0.7170785069465637,0.0009407561738044024,-0.0004246746248099953,-0.006635844707489014,-0.009928957559168339,-1.0411616563796997,-1.7440000772476196,4.330592632293701,-0.06972872465848923,0.027195902541279793,0.3360474705696106,0.0,0.0,0.0,0.0,-0.28663854453760346,-0.5271037324714788,0.5,-0.41471993923187256,-0.577741801738739,0.0049583218060433865,-0.007225170265883207,0.0071126194670796394,-0.006097989622503519,0.20267270505428314,-0.30794018507003784,-6.1734771728515625,0.08685492724180222,0.12347320467233658,0.02687681093811989,0.0,0.0,0.0,0.0,0.5997594870260676,0.01698698684959059,0.5
0.487,TAKEOFF,incipient,1.0,0.5909240245819092,0.01271150540560484,-0.0005539891426451504,0.0206646379083395,0.004034080076962709,0.0021402083802968264,0.24362896382808685,0.05175890028476715,1.3482046127319336,0.020553013309836388,-0.0658910796046257,0.07907446473836899,0.0,0.0,0.0,0.0,-0.31601341791250687,0.5100348220457651,0.5,-0.4324573278427124,0.7170785069465637,0.0009407561738044024,-0.0004246746248099953,-0.006635844707489014,-0.009928957559168339,-1.0411616563796997,-1.7440000772476196,4.330592632293701,-0.06972872465848923,0.027195902541279793,0.3360474705696106,0.0,0.0,0.0,0.0,-0.2822220231172056,-0.529481566881824,0.5,-0.41471993923187256,-0.577741801738739,0.0049583218060433865,-0.007225170265883207,0.0071126194670796394,-0.006097989622503519,0.20267270505428314,-0.30794018507003784,-6.1734771728515625,0.08685492724180222,0.12347320467233658,0.02687681093811989,0.0,0.0,0.0,0.0,0.5995965204017727,0.02200028913642909,0.5
0.507,TAKEOFF,incipient,1.0,0.5909240245819092,0.01271150540560484,-0.0005539891426451504,0.0206646379083395,0.004034080076962709,0.0021402083802968264,0.24362896382808685,0.05175890028476715,1.3482046127319336,0.020553013309836388,-0.0658910796046257,0.07907446473836899,0.0,0.0,0.0,0.0,-0.32026618676530094,0.5073751763880584,0.5,-0.4324573278427124,0.7170785069465637,0.0009407561738044024,-0.0004246746248099953,-0.006635844707489014,-0.009928957559168339,-1.0411616563796997,-1.7440000772476196,4.330592632293701,-0.06972872465848923,0.027195902541279793,0.3360474705696106,0.0,0.0,0.0,0.0,-0.2777857777029553,-0.5318223967697904,0.5,-0.41471993923187256,-0.577741801738739,0.0049583218060433865,-0.007225170265883207,0.0071126194670796394,-0.006097989622503519,0.3242241144180298,-0.2843942940235138,11.164952278137207,-0.05018393695354462,-0.11542002111673355,-0.169577956199646,0.0,0.0,0.0,0.0,0.5993916490460476,0.02701205386229737,0.5
0.527,TAKEOFF,incipient,1.0,0.5909240245819092,0.01271150540560484,-0.0005539891426451504,0.0206646379083395,0.004034080076962709,0.0021402083802968264,0.24362896382808685,0.05175890028476715,1.3482046127319336,0.020553013309836388,-0.0658910796046257,0.07907446473836899,0.0,0.0,0.0,0.0,-0.3244965727854969,0.5046800711841777,0.5,-0.4324573278427124,0.7170785069465637,0.0009407561738044024,-0.0004246746248099953,-0.006635844707489014,-0.009928957559168339,-1.0411616563796997,-1.7440000772476196,4.330592632293701,-0.06972872465848923,0.027195902541279793,0.3360474705696106,0.0,0.0,0.0,0.0,-0.2733301183361323,-0.5341260585389519,0.5,-0.41471993923187256,-0.577741801738739,0.0049583218060433865,0.0029227298218756914,0.003116723382845521,-0.0029160580597817898,0.3249519169330597,-0.2855397164821625,11.162198066711426,0.052435506135225296,0.10145309567451477,0.02591930888593197,0.0,0.0,0.0,0.0,0.5991448872769859,0.03202193076389722,0.5
0.547,TAKEOFF,incipient,1.0,0.5909240245819092,0.01271150540560484,-0.0005539891426451504,0.0206646379083395,0.004034080076962709,0.0021402083802968264,0.24362896382808685,0.05175890028476715,1.3482046127319336,0.020553013309836388,-0.0658910796046257,0.07907446473836899,0.0,0.0,0.0,0.0,-0.32870428031896065,0.5019496947902191,0.5,-0.4324573278427124,0.7170785069465637,0.0009407561738044024,-0.0004246746248099953,-0.006635844707489014,-0.009928957559168339,-1.0411616563796997,-1.7440000772476196,4.330592632293701,-0.06972872465848923,0.027195902541279793,0.3360474705696106,0.0,0.0,0.0,0.0,-0.2688553564148232,-0.5363923911904963,0.5,-0.41471993923187256,-0.577741801738739,0.0049583218060433865,0.0022766038309782743,0.003361296374350786,-0.002677065785974264,0.3256247043609619,-0.285902738571167,11.163213729858398,0.03617575019598007,0.12000129371881485,0.12303268909454346,0.0,0.0,0.0,0.0,0.5988562523403276,0.03702956970986711,0.5
0.567,TAKEOFF,incipient,1.0,0.5909240245819092,0.01271150540560484,-0.0005539891426451504,0.0206646379083395,0.004034080076962709,0.0021402083802968264,0.24362896382808685,0.05175890028476715,1.3482046127319336,0.020553013309836388,-0.0658910796046257,0.07907446473836899,0.0,0.0,0.0,0.0,-0.33288901529651715,0.4991842380273191,0.5,-0.4324573278427124,0.7170785069465637,0.0009407561738044024,-0.0004246746248099953,-0.006635844707489014,-0.009928957559168339,-1.0411616563796997,-1.7440000772476196,4.330592632293701,-0.06972872465848923,0.027195902541279793,0.3360474705696106,0.0,0.0,0.0,0.0,-0.2643618046721579,-0.5386212363344763,0.5,-0.41471993923187256,-0.577741801738739,0.0049583218060433865,0.0019574533216655254,0.003240334102883935,-0.0028395154513418674,0.32497668266296387,-0.28796470165252686,11.162641525268555,0.13450734317302704,-0.11204703897237778,0.11507268249988556,0.0,0.0,0.0,0.0,0.5985257644082534,0.04203462072525222,0.5
0.587,TAKEOFF,incipient,1.0,0.5909240245819092,0.01271150540560484,-0.0005539891426451504,0.0206646379083395,0.004034080076962709,0.0021402083802968264,0.24362896382808685,0.05175890028476715,1.3482046127319336,0.020553013309836388,-0.0658910796046257,0.07907446473836899,0.0,0.0,0.0,0.0,-0.3370504852545022,0.49638389416831863,0.5,-0.4324573278427124,0.7170785069465637,0.0009407561738044024,-0.0004246746248099953,-0.006635844707489014,-0.009928957559168339,-1.0411616563796997,-1.7440000772476196,4.330592632293701,-0.06972872465848923,0.027195902541279793,0.3360474705696106,0.0,0.0,0.0,0.0,-0.25984977715445345,-0.5408124382008802,0.5,-0.41471993923187256,-0.577741801738739,0.0049583218060433865,0.0017595177050679922,0.0029903724789619446,-0.003042582655325532,0.3262121081352234,-0.2879759669303894,11.163745880126953,-0.07095585018396378,-0.14171215891838074,-0.19424661993980408,0.0,0.0,0.0,0.0,0.5981534465779759,0.04703673401596362,0.5
0.607,TAKEOFF,incipient,1.0,0.5909240245819092,0.01271150540560484,-0.0005539891426451504,0.0206646379083395,0.004034080076962709,0.0021402083802968264,0.24362896382808685,0.05175890028476715,1.3482046127319336,0.020553013309836388,-0.0658910796046257,0.07907446473836899,0.0,0.0,0.0,0.0,-0.34118839935520257,0.4935488589242556,0.5,-0.4324573278427124,0.7170785069465637,0.0009407561738044024,-0.0004246746248099953,-0.006635844707489014,-0.009928957559168339,-1.0411616563796997,-1.7440000772476196,4.330592632293701,-0.06972872465848923,0.027195902541279793,0.3360474705696106,0.0,0.0,0.0,0.0,-0.25531958919926584,-0.5429658436505174,0.5,-0.41471993923187256,-0.577741801738739,0.0049583218060433865,0.0017287563532590866,0.0027853164356201887,-0.003360297065228224,0.32698747515678406,-0.2863330841064453,11.162569046020508,-0.00016444279754068702,0.05975908041000366,-0.0535690076649189,0.0,0.0,0.0,0.0,0.5977393248701239,0.052035559993224685,0.5
0.627,TAKEOFF,incipient,1.0,0.5909240245819092,0.01271150540560484,-0.0005539891426451504,0.0206646379083395,0.004034080076962709,0.0021402083802968264,0.24362896382808685,0.05175890028476715,1.3482046127319336,0.020553013309836388,-0.0658910796046257,0.07907446473836899,0.0,0.0,0.0,0.0,-0.3453024684071816,0.490679330430687,0.5,-0.4324573278427124,0.7170785069465637,0.0009407561738044024,-0.0004246746248099953,-0.006635844707489014,-0.009928957559168339,-1.0411616563796997,-1.7440000772476196,4.330592632293701,-0.06972872465848923,0.027195902541279793,0.3360474705696106,0.0,0.0,0.0,0.0,-0.2507715574133517,-0.5450813021857217,0.5,-0.41128620505332947,-0.5478009581565857,0.024882400408387184,0.002215256681665778,0.0024383668787777424,-0.0036089846398681402,0.32466626167297363,-0.2852720320224762,11.161528587341309,0.04426053166389465,-0.27452340722084045,0.12552352249622345,0.0,0.0,0.0,0.0,0.597283428226925,0.05703074929800325,0.5
0.648,TAKEOFF,incipient,1.0,0.5983403921127319,0.021977273747324944,0.0026488141156733036,0.012737478129565716,-0.0033499794080853462,0.005328913684934378,0.25755012035369873,0.2739928364753723,7.740485668182373,0.08062051981687546,0.16184678673744202,0.1294526904821396,0.0,0.0,0.0,0.0,-0.3493924048854908,0.48777550923384133,0.5,-0.4324573278427124,0.7170785069465637,0.0009407561738044024,-0.0004246746248099953,-0.006635844707489014,-0.009928957559168339,-1.0411616563796997,-1.7440000772476196,4.330592632293701,-0.06972872465848923,0.027195902541279793,0.3360474705696106,0.0,0.0,0.0,0.0,-0.24620599965054113,-0.5471586659608689,0.5,-0.41128620505332947,-0.5478009581565857,0.024882400408387184,0.002215256681665778,0.0024383668787777424,-0.0036089846398681402,0.32466626167297363,-0.2852720320224762,11.161528587341309,0.04426053166389465,-0.27452340722084045,0.12552352249622345,0.0,0.0,0.0,0.0,0.5967857885101826,0.06202195282542776,0.5
0.67,TAKEOFF,incipient,1.0,0.5955293774604797,0.02164866402745247,0.0005246271612122655,0.013928032480180264,-0.0030044433660805225,0.010670969262719154,0.1538500040769577,0.24651354551315308,7.543488502502441,0.10389748960733414,0.09083018451929092,0.007890681736171246,0.0,0.0,0.0,0.0,-0.353457922951764,0.48483759827660317,0.5,-0.43111178278923035,0.7151992321014404,-0.0011679499875754118,-0.00910231377929449,0.002896707970649004,-0.002275995211675763,-1.0423009395599365,-1.7244144678115845,4.518549919128418,-0.06393159180879593,-0.13962899148464203,-0.06510951370000839,0.0,0.0,0.0,0.0,-0.24162323498952346,-0.5491977897927098,0.5,-0.41128620505332947,-0.5478009581565857,0.024882400408387184,0.0019178532529622316,0.0026134089566767216,-0.003564694197848439,0.3242909908294678,-0.28207018971443176,11.160572052001953,0.04825783893465996,-0.1613733172416687,0.054867882281541824,0.0,0.0,0.0,0.0,0.5962464404990488,0.06700882174918546,0.5
0.688,TAKEOFF,incipient,1.0,0.5963686108589172,0.023007726296782494,0.0016471525887027383,0.013639113865792751,0.006436328403651714,-0.0013238440733402967,0.05705900862812996,0.3289785087108612,7.543905258178711,0.1933484971523285,0.03521011769771576,0.022212903946638107,0.0,0.0,0.0,0.0,0.6,0.0,0.5,-0.43148842453956604,0.7153492569923401,2.2161519154906273e-05,0.013047109358012676,-0.0174926295876503,-0.014482362195849419,-0.8873487114906311,-1.87019681930542,4.514937400817871,0.1863984614610672,-0.015679946169257164,0.15135759115219116,0.0,0.0,0.0,0.0,-0.3000025448675481,0.51961377298239,0.5,-0.41128620505332947,-0.5478009581565857,0.024882400408387184,0.0014070020988583565,0.0024279782082885504,-0.0033815032802522182,0.32353270053863525,-0.2817288041114807,11.16025447845459,0.04633457958698273,0.2193387746810913,-0.002121841534972191,0.0,0.0,0.0,0.0,-0.29999491024331576,-0.5196181808098181,0.5
0.708,TAKEOFF,incipient,1.0,0.5974477529525757,0.023334087803959846,0.0006946151843294501,0.02403198555111885,0.002719264244660735,-0.0007611603359691799,0.15944749116897583,0.20670537650585175,7.5548272132873535,0.12324393540620804,0.06239589676260948,-0.8287233114242554,50529.0,44032.0,50349.0,45142.0,0.6,0.0,0.5,-0.43148842453956604,0.7153492569923401,2.2161519154906273e-05,-0.021478062495589256,0.011022214777767658,0.009362543933093548,-1.108160376548767,-1.6205443143844604,4.581951141357422,0.15282075107097626,0.18582108616828918,-0.6229752898216248,48843.0,42756.0,49784.0,49189.0,-0.3000025448675481,0.51961377298239,0.5,-0.41128620505332947,-0.5478009581565857,0.024882400408387184,0.002466753125190735,0.0013528360286727548,-0.0034469394013285637,0.3265255093574524,-0.28053009510040283,11.166280746459961,0.9060734510421753,0.4551468789577484,-2.7655179500579834,51551.0,43096.0,52423.0,45005.0,-0.29999491024331576,-0.5196181808098181,0.5
0.727,TAKEOFF,incipient,1.0,0.5974477529525757,0.023334087803959846,0.0006946151843294501,0.013000637292861938,0.008752587251365185,-0.009650145657360554,0.09124628454446793,0.2759872376918793,7.601278781890869,0.03241319954395294,-1.1154948472976685,0.6546698212623596,50983.0,45827.0,51768.0,46738.0,-0.3655051340121204,0.4758213919222022,0.5,-0.43148842453956604,0.7153492569923401,2.2161519154906273e-05,-0.008029463700950146,0.024011192843317986,0.0004665968590416014,-1.1725929975509644,-1.6945096254348755,4.576050758361816,1.060924768447876,-0.8540838956832886,1.003496527671814,49958.0,44931.0,50830.0,49737.0,-0.22777490830812733,-0.5550843099432952,0.5,-0.41131290793418884,-0.5478301048278809,0.024860119447112083,0.0034852405078709126,0.00038605634472332895,-0.0034779179841279984,0.3276732563972473,-0.2852267622947693,11.1625337600708,-0.16321377456188202,-0.19395656883716583,0.8088286519050598,51551.0,43096.0,52423.0,45005.0,0.5943785381985877,0.08193993732551964,0.5
0.747,TAKEOFF,incipient,1.0,0.5974477529525757,0.023334087803959846,0.0006946151843294501,0.014401547610759735,0.003730048891156912,-0.0031611111480742693,0.12297698855400085,0.26675647497177124,7.6099138259887695,2.999063730239868,4.511783123016357,-0.15690506994724274,50634.0,47123.0,53703.0,47205.0,-0.3694701544749111,0.47274919878545035,0.5,-0.4359223246574402,0.7219182848930359,0.0020165638998150826,-0.002645171945914626,0.028412286192178726,-0.001219614059664309,-0.9148996472358704,-1.8736259937286377,4.524538516998291,-2.455585241317749,2.2696123123168945,-0.5823301672935486,50978.0,45284.0,51945.0,50799.0,-0.22312653055611198,-0.5569690757681187,0.5,-0.41131290793418884,-0.5478301048278809,0.024860119447112083,0.004439770709723234,-0.0007132184109650552,-0.0031088413670659065,0.32648468017578125,-0.2888965904712677,11.168816566467285,0.4499799311161041,-1.0648213624954224,-1.6578367948532104,55001.0,44889.0,53715.0,48439.0,0.593672763059041,0.08690598599546358,0.5
0.767,TAKEOFF,incipient,1.0,0.5974477529525757,0.023334087803959846,0.0006946151843294501,0.015106071718037128,0.00032909680157899857,-0.00016512714501004666,0.1340053230524063,0.23395656049251556,7.539231777191162,0.9081960916519165,4.974304676055908,-18.73647117614746,51565.0,48889.0,52470.0,49655.0,-0.37340935332755576,0.46964396605034386,0.5,-0.4359223246574402,0.7219182848930359,0.0020165638998150826,0.03172639384865761,0.0020827187690883875,-0.006436249241232872,-0.9148996472358704,-1.8736259937286377,4.524538516998291,-2.455585241317749,2.2696123123168945,-0.5823301672935486,51267.0,48157.0,52382.0,50902.0,-0.21846255888882235,-0.5588149160175915,0.5,-0.41131290793418884,-0.5478301048278809,0.024860119447112083,0.005425382871180773,-0.001598878181539476,0.00013853010023012757,0.3349106013774872,-0.27797043323516846,11.18840503692627,-2.042764902114868,3.6665282249450684,9.194952964782715,56053.0,45737.0,55839.0,48259.0,0.5929254971888999,0.09186596096104317,0.5
0.788,TAKEOFF,incipient,1.0,0.5960739850997925,0.023738231509923935,0.0005600304575636983,0.015106071718037128,0.00032909680157899857,-0.00016512714501004666,0.10737122595310211,0.21586501598358154,7.067677021026611,6.270312309265137,9.551224708557129,-38.20260238647461,51638.0,51533.0,50866.0,50286.0,-0.3773224552664721,0.46650591073606035,0.5,-0.4359223246574402,0.7219182848930359,0.0020165638998150826,0.030612751841545105,0.005545471794903278,-0.007590919733047485,-0.6368622183799744,-1.5690701007843018,4.046361446380615,9.129701614379883,-7.324157238006592,-12.29830551147461,51845.0,50808.0,52583.0,50111.0,-0.21378331926292005,-0.5606217016892303,0.5,-0.41131290793418884,-0.5478301048278809,0.024860119447112083,0.006132131442427635,-0.002280440181493759,0.0031796360854059458,0.3427813649177551,-0.2815297245979309,11.306100845336914,-8.66269588470459,7.173864841461182,3.2630703449249268,56988.0,47726.0,55822.0,47377.0,0.592136792813243,0.09681951557845418,0.5
0.807,TAKEOFF,incipient,1.0,0.5960739850997925,0.023738231509923935,0.0005600304575636983,0.018134955316781998,-0.005575358867645264,0.0005766873364336789,0.24013881385326385,0.11653373390436172,5.219547748565674,-7.375807762145996,-6.19514274597168,-40.3333625793457,53019.0,53132.0,48553.0,51450.0,-0.38120918681194466,0.46333525215568894,0.5,-0.4359223246574402,0.7219182848930359,0.0020165638998150826,0.04570643976330757,0.007251290138810873,-0.004962548613548279,-0.5243859887123108,-1.515496850013733,3.815349817276001,2.746272087097168,-0.7016002535820007,-3.0364770889282227,53050.0,47856.0,52117.0,53893.0,-0.20908913870211707,-0.5623893065100072,0.5,-0.41131290793418884,-0.5478301048278809,0.024860119447112083,0.006659581791609526,-0.0034563804510980844,0.0019782851450145245,0.36657941341400146,-0.26561158895492554,11.352377891540527,-2.685758352279663,1.9184975624084473,-4.744724750518799,57464.0,47442.0,55470.0,51069.0,0.5913067050532126,0.10176630365259905,0.5
0.827,TAKEOFF,incipient,1.0,0.5960739850997925,0.023738231509923935,0.0005600304575636983,-0.004824045579880476,-0.029003620147705078,-0.008056816644966602,0.31040310859680176,0.361875057220459,4.501265525817871,5.941975116729736,1.5444351434707642,-25.890316009521484,51846.0,51225.0,51801.0,53257.0,-0.38506927632723764,0.460132211900903,0.5,-0.4359223246574402,0.7219182848930359,0.0020165638998150826,0.04570643976330757,0.007251290138810873,-0.004962548613548279,-0.641803503036499,-1.4504382610321045,3.7967324256896973,0.06801261007785797,1.587707757949829,-5.143828868865967,53031.0,45486.0,54306.0,55146.0,-0.2043803452743208,-0.5641176069451737,0.5,-0.4112599492073059,-0.5483531355857849,0.025447726249694824,0.007394087500870228,-0.004777880851179361,0.003063521347939968,0.3746109902858734,-0.2455981969833374,11.168431282043457,-2.006695508956909,-1.3535401821136475,-8.814125061035156,58253.0,48747.0,55252.0,51211.0,0.5904352919221618,0.1067059794612819,0.5
0.847,TAKEOFF,incipient,1.0,0.5960739850997925,0.023738231509923935,0.0005600304575636983,-0.009659306146204472,-0.03043382056057453,-0.004323255270719528,0.3980530798435211,0.35928523540496826,3.9211857318878174,-1.6431243419647217,0.07065144181251526,-28.426288604736328,53270.0,52125.0,52025.0,52765.0,-0.3889024540375793,0.4568970138264733,0.5,-0.43427592515945435,0.7195222973823547,0.001933625782839954,0.03474372625350952,0.014355062507092953,0.00025008330703713,-0.5851842761039734,-1.2296695709228516,3.749870538711548,9.662606239318848,2.6296474933624268,-11.958621978759766,53161.0,51346.0,55264.0,50377.0,-0.1996572680687057,-0.5658064822068946,0.5,-0.4112599492073059,-0.5483531355857849,0.025447726249694824,0.007772482465952635,-0.006515864748507738,0.005480882246047258,0.3958832323551178,-0.24613340198993683,10.927579879760742,-2.682431697845459,-3.7739295959472656,-13.166430473327637,57852.0,49277.0,56176.0,51826.0,0.5895226143216002,0.11163819777937034,0.5
0.867,TAKEOFF,incipient,1.0,0.5960739850997925,0.023738231509923935,0.0005600304575636983,-0.011174038052558899,-0.02914942055940628,5.395489642978646e-05,0.4402411878108978,0.29686790704727173,3.240652322769165,12.998555183410645,8.311714172363281,-25.502872467041016,52425.0,54792.0,52773.0,51133.0,-0.392708452049016,0.45362988403462323,0.5,-0.43427592515945435,0.7195222973823547,0.001933625782839954,0.030926965177059174,0.022701343521475792,0.0147680239751935,-0.2980560064315796,-1.2335604429244995,3.4679079055786133,30.212602615356445,-14.413614273071289,-16.14116096496582,54160.0,51868.0,52275.0,52685.0,-0.19492023717271412,-0.5674558142626903,0.5,-0.4112599492073059,-0.5483531355857849,0.025447726249694824,0.007508778013288975,-0.007936934940516949,0.008123469538986683,0.49390754103660583,-0.18310146033763885,10.711111068725586,7.550541877746582,3.8347158432006836,-9.240217208862305,58242.0,50997.0,56367.0,50873.0,0.5885687360369374,0.11656261390292276,0.5
0.887,TAKEOFF,incipient,1.0,0.5904543995857239,0.01659875363111496,0.00029378617182374,-0.009383182972669601,-0.03217484802007675,0.011846347711980343,0.4402411878108978,0.29686790704727173,3.240652322769165,12.998555183410645,8.311714172363281,-25.502872467041016,53434.0,54897.0,52320.0,51593.0,-0.3964870043671346,0.45033105085922703,0.5,-0.43427592515945435,0.7195222973823547,0.001933625782839954,0.035352278500795364,0.024899614974856377,0.027455074712634087,0.32872137427330017,-0.9681329727172852,3.1389379501342773,43.05045700073242,-4.918457508087158,-19.000490188598633,55005.0,52659.0,51037.0,52845.0,-0.19016958364898684,-0.5690654878436848,0.5,-0.4112599492073059,-0.5483531355857849,0.025447726249694824,0.007438334170728922,-0.009777962230145931,0.01676996983587742,0.6990750432014465,-0.21416926383972168,10.39803695678711,11.192498207092285,-2.6511871814727783,-23.537837982177734,57573.0,53197.0,55939.0,50972.0,0.5875737237330256,0.12147888367327896,0.5
0.907,TAKEOFF,incipient,1.0,0.5904543995857239,0.01659875363111496,0.00029378617182374,-0.011649473570287228,-0.031304653733968735,0.024219071492552757,0.7693051099777222,0.5400230884552002,2.2135419845581055,-17.78540802001953,-36.24256896972656,-17.760963439941406,51813.0,56432.0,54280.0,50244.0,-0.40023784691565273,0.44700074484985197,0.5,-0.43427592515945435,0.7195222973823547,0.001933625782839954,0.032854121178388596,0.03321916610002518,0.05295102670788765,1.3556686639785767,-0.7862368822097778,2.736870527267456,60.70673751831055,-15.78228759765625,-17.270092010498047,55453.0,55416.0,50043.0,50195.0,-0.1854056395122259,-0.5706353904526624,0.5,-0.4112599492073059,-0.5483531355857849,0.025447726249694824,0.008562341332435608,-0.0118598947301507,0.019419290125370026,1.0522472858428955,-0.19744141399860382,9.91226863861084,27.262910842895508,7.688295364379883,-24.97367286682129,59847.0,53629.0,53329.0,51617.0,0.5865376469495001,0.1263866635011129,0.5
0.927,TAKEOFF,incipient,1.0,0.5904543995857239,0.01659875363111496,0.00029378617182374,-0.01491270586848259,-0.029796436429023743,0.04534343630075455,0.30141210556030273,1.3830008506774902,1.7979443073272705,-9.831398010253906,-51.603919982910156,-19.675899505615234,49497.0,56290.0,56509.0,50684.0,-0.40396071755487434,0.44363919875564534,0.5,-0.43427592515945435,0.7195222973823547,0.001933625782839954,0.0364755243062973,0.031075268983840942,0.07409819215536118,2.7093493938446045,-0.4743163287639618,2.3295717239379883,55.24258041381836,-33.124542236328125,-13.347990989685059,54192.0,56470.0,51420.0,49097.0,-0.18062873770599044,-0.5721654123719299,0.5,-0.4111785888671875,-0.5497516393661499,0.02751842513680458,0.009890818037092686,-0.01528971642255783,0.036468755453825,1.6708948612213135,-0.36101779341697693,9.378949165344238,36.614013671875,7.402661323547363,-28.92641830444336,59155.0,55007.0,53599.0,51071.0,0.5854605780959193,0.1312856103904454,0.5
0.947,TAKEOFF,incipient,1.0,0.5904543995857239,0.01659875363111496,0.00029378617182374,-0.015650829300284386,-0.024715756997466087,0.04263455793261528,0.30141210556030273,1.3830008506774902,1.7979443073272705,-9.831398010253906,-51.603919982910156,-19.675899505615234,49677.0,55658.0,56366.0,51959.0,-0.4076553561000101,0.4402466475090684,0.5,-0.42867517471313477,0.7191945314407349,0.006399269215762615,0.05232147127389908,0.0006158789619803429,0.09080031514167786,3.7985267639160156,0.16577929258346558,1.968273639678955,53.4920768737793,-34.63248825073242,-11.888216972351074,54928.0,56485.0,51055.0,48904.0,-0.17583921207942815,-0.5736554466709837,0.5,-0.4111785888671875,-0.5497516393661499,0.02751842513680458,0.04454320669174194,-0.027454687282443047,0.04222429543733597,2.207390546798706,-0.6220698952674866,9.071379661560059,7.984442234039307,-7.447064399719238,-32.36800003051758,56701.0,54037.0,56935.0,54449.0,0.5843425924467047,0.13617538196261564,0.5
0.967,TAKEOFF,incipient,1.0,0.5904543995857239,0.01659875363111496,0.00029378617182374,-0.026821646839380264,-0.01944158598780632,0.05739783123135567,0.3414398431777954,3.559150218963623,0.8937913775444031,10.907917976379395,-41.45956039428711,-15.539484977722168,50541.0,57833.0,55823.0,49586.0,-0.41132150433936154,0.4368233282094771,0.5,-0.42867517471313477,0.7191945314407349,0.006399269215762615,0.05836385488510132,-0.029292041435837746,0.12388845533132553,4.560256004333496,0.8534545302391052,1.6406832933425903,2.5320959091186523,-44.15534973144531,-7.137822151184082,54245.0,56311.0,52332.0,48971.0,-0.17103739736394294,-0.5751053892139846,0.5,-0.4111785888671875,-0.5497516393661499,0.02751842513680458,0.054492637515068054,-0.05630452185869217,0.07496854662895203,2.532810688018799,-0.552078127861023,8.409880638122559,-28.94304084777832,-25.358667373657227,-38.1373405456543,54148.0,53868.0,58297.0,55573.0,0.5831837681358792,0.14105563648020936,0.5
0.988,TAKEOFF,incipient,1.0,0.5874776840209961,0.01950167864561081,0.0026169326156377792,-0.033896949142217636,-0.016486000269651413,0.06416844576597214,0.3414398431777954,3.559150218963623,0.8937913775444031,10.907917976379395,-41.45956039428711,-15.539484977722168,50884.0,58798.0,55986.0,48679.0,-0.4149589060523668,0.4333694801065518,0.5,-0.42867517471313477,0.7191945314407349,0.006399269215762615,0.05836385488510132,-0.029292041435837746,0.12388845533132553,4.332701683044434,1.8930139541625977,1.3869339227676392,-28.689453125,-59.1976432800293,-9.437918663024902,50296.0,54732.0,56197.0,50921.0,-0.16622362914980124,-0.576515138667034,0.5,-0.4111785888671875,-0.5497516393661499,0.02751842513680458,0.06003821641206741,-0.07043614983558655,0.11343750357627869,2.0183846950531006,-0.10963675379753113,7.602164268493652,-34.66368865966797,-23.336854934692383,-37.79557800292969,54622.0,53075.0,56977.0,56018.0,0.5819841861516073,0.14592603287094227,0.5
1.007,TAKEOFF,incipient,1.0,0.5874776840209961,0.01950167864561081,0.0026169326156377792,-0.050141334533691406,-0.016182446852326393,0.08469441533088684,0.8155282139778137,4.810247421264648,0.44611620903015137,9.668819427490234,-10.947145462036133,-0.5707869529724121,51802.0,57834.0,56141.0,49775.0,-0.4185673070275074,0.4298853445835765,0.5,-0.42867517471313477,0.7191945314407349,0.006399269215762615,0.046793852001428604,-0.04939897358417511,0.14713376760482788,3.6554038524627686,2.935992479324341,1.1599018573760986,-38.00137710571289,-37.31389236450195,-5.070470809936523,49644.0,54069.0,56435.0,51925.0,-0.16139824386267818,-0.5778845965052568,0.5,-0.4111785888671875,-0.5497516393661499,0.02751842513680458,0.05189424008131027,-0.06952495127916336,0.12755326926708221,1.2382224798202515,0.39949801564216614,6.8250274658203125,-37.236812591552734,-26.65906524658203,-34.4306526184082,53187.0,53189.0,58402.0,56279.0,0.5807439303305342,0.150786230751497,0.5
1.027,TAKEOFF,incipient,1.0,0.5874776840209961,0.01950167864561081,0.0026169326156377792,-0.07678501307964325,-0.00860885251313448,0.10853792726993561,0.9130233526229858,4.969505310058594,0.538896381855011,11.253464698791504,7.312472343444824,6.271053314208984,53284.0,56920.0,56525.0,49202.0,-0.42214645508007487,0.42637116514056894,0.5,-0.42867517471313477,0.7191945314407349,0.006399269215762615,0.038550011813640594,-0.06552700698375702,0.17079558968544006,3.6554038524627686,2.935992479324341,1.1599018573760986,-38.00137710571289,-37.31389236450195,-5.070470809936523,51763.0,54915.0,54762.0,50762.0,-0.15656157874014534,-0.5792136670196874,0.5,-0.39847034215927124,-0.5472831726074219,0.015744224190711975,0.049953483045101166,-0.06961806118488312,0.15005411207675934,0.4947187900543213,0.8890522122383118,6.1495232582092285,-16.474868774414062,-16.570022583007812,-30.156293869018555,55425.0,55029.0,56406.0,54480.0,0.5794630873519272,0.15563589045131176,0.5
1.047,TAKEOFF,incipient,1.0,0.5874776840209961,0.01950167864561081,0.0026169326156377792,-0.09537068754434586,-0.012073319405317307,0.1266416311264038,0.9130233526229858,4.969505310058594,0.538896381855011,11.253464698791504,7.312472343444824,6.271053314208984,53850.0,56520.0,55850.0,50477.0,-0.4256961000697951,0.42282718737726294,0.5,-0.4296051561832428,0.7168760895729065,0.01853892207145691,0.0226519163697958,-0.0740249902009964,0.19500263035297394,2.9727232456207275,3.6121022701263428,0.9650900959968567,-26.857622146606445,-28.270601272583008,-0.8297796845436096,51044.0,54745.0,55600.0,50533.0,-0.15171397180810206,-0.5805022573239577,0.5,-0.39847034215927124,-0.5472831726074219,0.015744224190711975,0.045043595135211945,-0.06814835965633392,0.17451485991477966,0.10502692312002182,1.2719179391860962,5.551992893218994,-7.47815465927124,-27.085384368896484,-26.379314422607422,53614.0,56749.0,57978.0,52412.0,0.5781417467316179,0.1604746730363196,0.5
1.067,TAKEOFF,incipient,1.0,0.5874776840209961,0.01950167864561081,0.0026169326156377792,-0.11417248100042343,-0.013761129230260849,0.14838044345378876,1.110642433166504,4.697709560394287,0.6976456046104431,8.120048522949219,22.73829460144043,8.679340362548828,54215.0,55669.0,55814.0,51441.0,0.6,0.0,0.5,-0.4296051561832428,0.7168760895729065,0.01853892207145691,-0.018107542768120766,-0.07884914427995682,0.2174927145242691,1.9332424402236938,4.52281379699707,0.9561696648597717,-16.940954208374023,12.508071899414062,-0.23810744285583496,52058.0,53362.0,54634.0,52087.0,-0.3000025448675481,0.51961377298239,0.5,-0.39847034215927124,-0.5472831726074219,0.015744224190711975,0.03780810534954071,-0.06594093888998032,0.20454344153404236,-0.07593618333339691,1.821367859840393,5.035993576049805,-5.661270618438721,-37.220306396484375,-25.766023635864258,52695.0,54843.0,57943.0,54137.0,-0.29999491024331576,-0.5196181808098181,0.5
1.087,TAKEOFF,incipient,1.0,0.5750605463981628,0.02535650134086609,0.015552318654954433,-0.11417248100042343,-0.013761129230260849,0.14838044345378876,1.1642037630081177,4.195634841918945,0.8867818117141724,-1.1650753021240234,21.091157913208008,9.770830154418945,53671.0,55708.0,57270.0,50196.0,0.6,0.0,0.5,-0.4296051561832428,0.7168760895729065,0.01853892207145691,-0.04988780617713928,-0.08139970153570175,0.24909980595111847,1.9332424402236938,4.52281379699707,0.9561696648597717,-16.940954208374023,12.508071899414062,-0.23810744285583496,52649.0,53767.0,53889.0,51182.0,-0.3000025448675481,0.51961377298239,0.5,-0.39847034215927124,-0.5472831726074219,0.015744224190711975,0.027590999379754066,-0.06294791400432587,0.23434218764305115,-0.2461426556110382,2.5523979663848877,4.529550552368164,-17.255657196044922,-23.68276596069336,-23.989036560058594,54511.0,56443.0,56368.0,52549.0,-0.29999491024331576,-0.5196181808098181,0.5
1.107,TAKEOFF,incipient,1.0,0.5750605463981628,0.02535650134086609,0.015552318654954433,-0.11722524464130402,-0.003858269192278385,0.19088314473628998,0.9894148707389832,3.8449010848999023,1.1831098794937134,-4.07490348815918,24.420970916748047,15.78644847869873,53271.0,54390.0,57699.0,51763.0,-0.43616554629176085,0.41201895129715793,0.5,-0.4296051561832428,0.7168760895729065,0.01853892207145691,-0.06505891680717468,-0.08627921342849731,0.27620285749435425,1.6546257734298706,3.790018320083618,0.9651548862457275,0.7916825413703918,23.7163028717041,-0.25008031725883484,53024.0,54414.0,53265.0,50148.0,-0.1371088917423379,-0.58412426058604,0.5,-0.39847034215927124,-0.5472831726074219,0.015744224190711975,0.017947020009160042,-0.06588534265756607,0.27185097336769104,-0.47570669651031494,3.0568625926971436,4.050802230834961,-3.2129716873168945,-7.951539039611816,-21.830747604370117,54903.0,55113.0,55606.0,53676.0,0.5739356765944883,0.17492238030631455,0.5
1.127,TAKEOFF,incipient,1.0,0.5750605463981628,0.02535650134086609,0.015552318654954433,-0.12895900011062622,-0.007221176754683256,0.20857974886894226,0.3207777142524719,2.362877368927002,1.9093881845474243,-25.560665130615234,37.81960678100586,14.031041145324707,53548.0,53275.0,57747.0,52262.0,0.6,0.0,0.5,-0.4296051561832428,0.7168760895729065,0.01853892207145691,-0.08073236048221588,-0.09291082620620728,0.30094292759895325,1.746919870376587,3.132047414779663,0.9456573724746704,1.0444493293762207,34.910213470458984,-0.35292598605155945,53965.0,53612.0,52161.0,50751.0,-0.3000025448675481,0.51961377298239,0.5,-0.3938368558883667,-0.5544112920761108,0.03912392258644104,0.005625334568321705,-0.06469953060150146,0.29908090829849243,-0.5247833728790283,3.2340095043182373,3.6148791313171387,3.4155304431915283,-0.10107778012752533,-19.976360321044922,55404.0,54302.0,54206.0,53749.0,-0.29999491024331576,-0.5196181808098181,0.5
1.147,TAKEOFF,incipient,1.0,0.5750605463981628,0.02535650134086609,0.015552318654954433,-0.13799282908439636,-0.009113539941608906,0.21738924086093903,-0.041687577962875366,1.6016687154769897,2.162224769592285,-6.925909042358398,32.67041778564453,11.075963973999023,54790.0,52771.0,56519.0,53442.0,-0.4429931694670862,0.4046690645521417,0.5,-0.43768632411956787,0.710608720779419,0.04405098408460617,-0.08097504824399948,-0.10702353715896606,0.3089826703071594,1.6071723699569702,2.4742815494537354,0.9949796199798584,-2.5541465282440186,44.315032958984375,-1.6730353832244873,55265.0,53002.0,50848.0,51703.0,-0.12732369311357394,-0.5863349530532189,0.5,-0.3938368558883667,-0.5544112920761108,0.03912392258644104,-0.02621091902256012,-0.044489964842796326,0.31809183955192566,-0.5956410765647888,3.3475587368011475,3.213853120803833,16.880823135375977,16.135787963867188,-18.617198944091797,55743.0,54777.0,53431.0,53392.0,0.5709309098132502,0.18449362108163597,0.5
1.167,TAKEOFF,incipient,1.0,0.5750605463981628,0.02535650134086609,0.015552318654954433,-0.1504151076078415,-0.025775840505957603,0.2312127947807312,-0.041687577962875366,1.6016687154769897,2.162224769592285,-6.925909042358398,32.67041778564453,11.075963973999023,54453.0,54696.0,56972.0,51747.0,-0.4463606598067622,0.40095156986458086,0.5,-0.43768632411956787,0.710608720779419,0.04405098408460617,-0.10829952359199524,-0.09831441938877106,0.3362324833869934,1.5745946168899536,1.5056768655776978,0.9959086775779724,1.265855073928833,50.992034912109375,-0.031565792858600616,54790.0,52430.0,50907.0,52052.0,-0.12241757503147338,-0.5873788703412931,0.5,-0.3938368558883667,-0.5544112920761108,0.03912392258644104,-0.04151925444602966,-0.039510246366262436,0.34167104959487915,-0.26933589577674866,3.051496982574463,2.8304522037506104,22.04631233215332,21.549131393432617,-22.019254684448242,55797.0,55155.0,52979.0,53614.0,0.5693686212096191,0.18926006758388672,0.5
1.187,TAKEOFF,incipient,1.0,0.5675630569458008,0.022316165268421173,0.03713269531726837,-0.15110501646995544,-0.026366783306002617,0.24702206254005432,0.05612070485949516,1.0844086408615112,2.3587398529052734,-9.25820255279541,21.615360260009766,11.030344009399414,54383.0,55358.0,57175.0,51080.0,0.6,0.0,0.5,-0.43768632411956787,0.710608720779419,0.04405098408460617,-0.1134180948138237,-0.1061815619468689,0.3458925187587738,1.5745946168899536,1.5056768655776978,0.9959086775779724,1.265855073928833,50.992034912109375,-0.031565792858600616,54455.0,51934.0,51663.0,52417.0,-0.3000025448675481,0.51961377298239,0.5,-0.3938368558883667,-0.5544112920761108,0.03912392258644104,-0.05252516269683838,-0.03944782540202141,0.35981109738349915,0.18321487307548523,2.6202170848846436,2.4014763832092285,25.473047256469727,29.93006706237793,-19.506023406982422,55824.0,54392.0,52777.0,54246.0,-0.29999491024331576,-0.5196181808098181,0.5
1.212,TAKEOFF,incipient,1.0,0.5675630569458008,0.022316165268421173,0.03713269531726837,-0.15110501646995544,-0.026366783306002617,0.24702206254005432,-0.0007410501129925251,0.6619104743003845,2.5621116161346436,4.575355529785156,14.725050926208496,10.692030906677246,54435.0,53870.0,57380.0,52585.0,0.6,0.0,0.5,-0.43768632411956787,0.710608720779419,0.04405098408460617,-0.1247561126947403,-0.10705897212028503,0.36338159441947937,1.5251541137695312,0.5067094564437866,1.063156008720398,1.118007779121399,50.117130279541016,0.9765885472297668,55094.0,52144.0,50912.0,51948.0,-0.3000025448675481,0.51961377298239,0.5,-0.3938368558883667,-0.5544112920761108,0.03912392258644104,-0.06146926060318947,-0.04099924489855766,0.37357208132743835,0.6922447085380554,2.0231752395629883,2.0039122104644775,15.486397743225098,27.918989181518555,-19.565011978149414,55824.0,54392.0,52777.0,54246.0,-0.29999491024331576,-0.5196181808098181,0.5
1.227,TAKEOFF,incipient,1.0,0.5675630569458008,0.022316165268421173,0.03713269531726837,-0.15163876116275787,-0.007321555633097887,0.2870080769062042,-0.13032278418540955,0.2210625559091568,2.983739137649536,0.17802199721336365,4.723302841186523,8.874939918518066,54830.0,55358.0,56811.0,50970.0,-0.45627502824887034,0.3896320040711396,0.5,-0.43768632411956787,0.710608720779419,0.04405098408460617,-0.12970168888568878,-0.1076878160238266,0.38108786940574646,1.4874104261398315,-0.45974811911582947,1.1429662704467773,-1.5279914140701294,49.364803314208984,1.903375267982483,54734.0,52157.0,50764.0,52181.0,-0.1076492619942738,-0.5902640395552555,0.5,-0.4034256339073181,-0.5533860325813293,0.07266919314861298,-0.06806404143571854,-0.04404847323894501,0.38281387090682983,1.0127736330032349,1.4402204751968384,1.6219302415847778,-2.2425079345703125,28.547649383544922,-20.37751007080078,54516.0,52750.0,53115.0,55959.0,0.5644434530933683,0.203478716970681,0.5
1.248,TAKEOFF,incipient,1.0,0.5675630569458008,0.022316165268421173,0.03713269531726837,-0.1525397002696991,-0.006933806464076042,0.2930382192134857,-0.13032278418540955,0.2210625559091568,2.983739137649536,0.17802199721336365,4.723302841186523,8.874939918518066,53283.0,56642.0,58629.0,48992.0,0.6,0.0,0.5,-0.4450910985469818,0.7020926475524902,0.07831435650587082,-0.10516771674156189,-0.11939851939678192,0.37135422229766846,1.456679344177246,-1.5301003456115723,1.1724646091461182,-10.106141090393066,36.75225067138672,2.3521804809570312,55325.0,52543.0,51287.0,51767.0,-0.3000025448675481,0.51961377298239,0.5,-0.4034256339073181,-0.5533860325813293,0.07266919314861298,-0.07256025820970535,-0.04782255366444588,0.3908907473087311,0.9821475148200989,0.8542202115058899,1.2331302165985107,-18.896636962890625,28.55410385131836,-17.78459930419922,54516.0,52750.0,53115.0,55959.0,-0.29999491024331576,-0.5196181808098181,0.5
1.269,TAKEOFF,incipient,1.0,0.5675630569458008,0.022316165268421173,0.03713269531726837,-0.15286259353160858,-0.0074181524105370045,0.2874343693256378,0.08812405914068222,0.07251488417387009,3.1729342937469482,19.435253143310547,10.197728157043457,8.476482391357422,53775.0,54833.0,58340.0,51352.0,0.6,0.0,0.5,-0.4450910985469818,0.7020926475524902,0.07831435650587082,-0.09231442958116531,-0.1253112107515335,0.37389951944351196,0.8691205978393555,-2.4394218921661377,1.276503324508667,-19.372610092163086,5.735372543334961,3.186373710632324,54204.0,53070.0,52802.0,51190.0,-0.3000025448675481,0.51961377298239,0.5,-0.4034256339073181,-0.5533860325813293,0.07266919314861298,-0.06259266287088394,-0.04835991933941841,0.3864894509315491,0.6278343200683594,0.18125233054161072,0.8608864545822144,-22.19248390197754,24.36935806274414,-17.38240623474121,52864.0,52030.0,54542.0,56638.0,-0.29999491024331576,-0.5196181808098181,0.5
1.287,TAKEOFF,incipient,1.0,0.5675630569458008,0.022316165268421173,0.03713269531726837,-0.15286259353160858,-0.0074181524105370045,0.2874343693256378,0.35137486457824707,-0.220479354262352,3.345048427581787,12.151891708374023,11.304207801818848,6.551756858825684,54603.0,54502.0,57639.0,51831.0,-0.4659024158308808,0.3780673735234885,0.5,-0.4450910985469818,0.7020926475524902,0.07831435650587082,-0.08364106714725494,-0.12943875789642334,0.3850567042827606,0.45695266127586365,-2.5318286418914795,1.3487964868545532,-19.850502014160156,-1.3029282093048096,5.828742980957031,53631.0,52686.0,53173.0,51094.0,-0.0928132413774713,-0.5927779535585034,0.5,-0.4034256339073181,-0.5533860325813293,0.07266919314861298,-0.059329185634851456,-0.04928791895508766,0.39137905836105347,0.1609247773885727,-0.3335207998752594,0.5055057406425476,-19.128843307495117,12.260485649108887,-16.54953384399414,53017.0,53559.0,54312.0,55530.0,0.5591632700023405,0.21756938543896676,0.5
1.307,TAKEOFF,incipient,1.0,0.5503994226455688,0.028616612777113914,0.06773196160793304,-0.1944401115179062,0.006544708739966154,0.2938947081565857,0.33143407106399536,-0.4593060314655304,3.5697948932647705,5.007889270782471,19.96623992919922,7.741016387939453,52736.0,55349.0,59271.0,50806.0,-0.4690467196343422,0.3741592906774638,0.5,-0.4450910985469818,0.7020926475524902,0.07831435650587082,-0.06999275833368301,-0.12783387303352356,0.3831897974014282,0.092015840113163,-2.440288782119751,1.4495495557785034,-14.75985336303711,-3.638699769973755,4.915924072265625,52692.0,53486.0,54173.0,50113.0,-0.08785446675178829,-0.5935331437011407,0.5,-0.4034256339073181,-0.5533860325813293,0.07266919314861298,-0.012201223522424698,-0.07550503313541412,0.42390429973602295,-0.0016487638931721449,-0.9435123801231384,0.21296744048595428,-13.94327449798584,4.573694229125977,-13.726374626159668,53542.0,53173.0,52882.0,54843.0,0.557324884370852,0.2222363005024526,0.5
1.33,TAKEOFF,incipient,1.0,0.5503994226455688,0.028616612777113914,0.06773196160793304,-0.19134850800037384,0.0066766985692083836,0.307203084230423,0.4411112666130066,-0.6329709887504578,3.7735021114349365,4.981441974639893,24.213172912597656,7.483076095581055,55080.0,56100.0,57608.0,49367.0,-0.4721582425991132,0.3702250585059268,0.5,-0.4450910985469818,0.7020926475524902,0.07831435650587082,-0.06098521500825882,-0.12889152765274048,0.39165452122688293,-0.14898677170276642,-2.3428313732147217,1.551884412765503,-6.48379373550415,-6.718185901641846,5.954061508178711,53689.0,52900.0,52988.0,50333.0,-0.0828895521341125,-0.5942468528709313,0.5,-0.39947131276130676,-0.5613532066345215,0.11565706133842468,-0.00637148879468441,-0.06872586160898209,0.43610119819641113,-0.3962993323802948,-1.0104917287826538,-0.20854544639587402,-2.998473882675171,-7.18592643737793,-12.198151588439941,53149.0,54030.0,52966.0,53634.0,0.555447548297184,0.22688768386725483,0.5
1.347,TAKEOFF,incipient,1.0,0.5503994226455688,0.028616612777113914,0.06773196160793304,-0.18678228557109833,0.0058458112180233,0.31651902198791504,0.5381535887718201,-1.1582547426223755,3.934957504272461,5.780514240264893,23.916099548339844,2.0493922233581543,54014.0,53829.0,57800.0,52406.0,0.6,0.0,0.5,-0.4506032168865204,0.6893231272697449,0.11476130783557892,-0.05226253718137741,-0.12873952090740204,0.4019991159439087,-0.26194602251052856,-2.20316481590271,1.6766269207000732,-5.444949150085449,-6.182394981384277,5.049203395843506,54360.0,53627.0,52033.0,48928.0,-0.3000025448675481,0.51961377298239,0.5,-0.39947131276130676,-0.5613532066345215,0.11565706133842468,-0.02977888472378254,-0.04867232218384743,0.43118852376937866,-0.5725336670875549,-0.6868418455123901,-0.32540804147720337,1.5066022872924805,-11.747845649719238,-8.997651100158691,51801.0,54534.0,52409.0,54530.0,-0.29999491024331576,-0.5196181808098181,0.5
1.369,TAKEOFF,incipient,1.0,0.5503994226455688,0.028616612777113914,0.06773196160793304,-0.18123607337474823,0.004236480221152306,0.3145286738872528,0.5954338312149048,-1.7654365301132202,4.022915363311768,3.4512956142425537,36.168365478515625,0.8480010032653809,54918.0,55482.0,56689.0,50229.0,-0.4782820784836144,0.3622792478205089,0.5,-0.4506032168865204,0.6893231272697449,0.11476130783557892,-0.0440983809530735,-0.12786518037319183,0.40904533863067627,-0.3610346019268036,-2.0691511631011963,1.7908432483673096,-6.951582431793213,-5.144282817840576,6.657249927520752,53456.0,52960.0,52819.0,49228.0,-0.07294269128375594,-0.5955496316750457,0.5,-0.39947131276130676,-0.5613532066345215,0.11565706133842468,-0.02089655213057995,-0.049969013780355453,0.43258270621299744,-0.515575647354126,-0.5084492564201355,-0.5049158930778503,0.5053087472915649,-7.933141231536865,-8.306722640991211,51422.0,54180.0,52588.0,54478.0,0.5515765523509967,0.23614255630145986,0.5
1.387,TAKEOFF,incipient,1.0,0.5281229019165039,0.027557624503970146,0.10120424628257751,-0.17253808677196503,0.002366747474297881,0.32434794306755066,0.7146479487419128,-2.57854962348938,4.060033321380615,8.571226119995117,51.277313232421875,3.1899118423461914,54621.0,55926.0,57133.0,49486.0,0.6,0.0,0.5,-0.4506032168865204,0.6893231272697449,0.11476130783557892,-0.03639913722872734,-0.1265915483236313,0.41690582036972046,-0.6471929550170898,-1.9687761068344116,1.8605709075927734,-4.209847450256348,-0.5195785164833069,6.1053972244262695,53852.0,52741.0,52148.0,49003.0,-0.3000025448675481,0.51961377298239,0.5,-0.39947131276130676,-0.5613532066345215,0.11565706133842468,-0.02097124606370926,-0.04690450429916382,0.43282169103622437,-0.5032682418823242,-0.3286806643009186,-0.684997022151947,-1.4326661825180054,-4.814256191253662,-6.686636447906494,52408.0,52393.0,53410.0,53739.0,-0.29999491024331576,-0.5196181808098181,0.5
1.407,TAKEOFF,incipient,1.0,0.5281229019165039,0.027557624503970146,0.10120424628257751,-0.16109086573123932,0.00017306463269051164,0.32857874035835266,1.0943078994750977,-4.072375774383545,4.153552055358887,7.304257869720459,31.116519927978516,1.7268304824829102,55394.0,56071.0,56138.0,49117.0,-0.484272211578423,0.3542321627025743,0.5,-0.4506032168865204,0.6893231272697449,0.11476130783557892,-0.028396310284733772,-0.09118332713842392,0.4110350012779236,-0.798053503036499,-1.9619128704071045,1.9670820236206055,-6.5586676597595215,0.5824124217033386,5.300936698913574,54010.0,52176.0,52209.0,49591.0,-0.06297543945127594,-0.5966859257816617,0.5,-0.39947131276130676,-0.5613532066345215,0.11565706133842468,-0.015823666006326675,-0.04585687443614006,0.43740323185920715,-0.5407905578613281,-0.2698938548564911,-0.8020480275154114,-2.8526790142059326,-0.7351882457733154,-5.679904937744141,52168.0,53387.0,51798.0,54239.0,0.5475513642928822,0.2453314155606726,0.5
1.428,TAKEOFF,incipient,1.0,0.5281229019165039,0.027557624503970146,0.10120424628257751,-0.14735952019691467,-0.002441845368593931,0.32964062690734863,1.2711013555526733,-4.730124473571777,4.190534591674805,0.3193347156047821,32.22534942626953,1.703468680381775,55614.0,53430.0,55853.0,52082.0,-0.48721661481630213,0.35017134412590517,0.5,-0.4506032168865204,0.6893231272697449,0.11476130783557892,-0.028396310284733772,-0.09118332713842392,0.4110350012779236,-0.798053503036499,-1.9619128704071045,1.9670820236206055,-6.5586676597595215,0.5824124217033386,5.300936698913574,53021.0,51314.0,53077.0,50321.0,-0.05798503744196558,-0.5971915399876775,0.5,-0.4060743749141693,-0.5601624250411987,0.1562720388174057,-0.014868129044771194,-0.04392528906464577,0.4395768642425537,-0.5993220806121826,-0.27984556555747986,-0.928417444229126,2.3463692665100098,2.601879596710205,-5.024116039276123,51337.0,53788.0,52411.0,53402.0,0.5454812981819919,0.24990028678192602,0.5
1.447,TAKEOFF,incipient,1.0,0.5281229019165039,0.027557624503970146,0.10120424628257751,-0.13177618384361267,-0.005418865941464901,0.325524240732193,1.3781661987304688,-5.255396842956543,4.21544885635376,4.6722211837768555,28.744035720825195,1.6616113185882568,54562.0,56624.0,56684.0,48170.0,-0.4901269673539227,0.34608605269852577,0.5,-0.4606582522392273,0.6873974800109863,0.15385976433753967,-0.03847023472189903,-0.06403902918100357,0.4313054084777832,-1.2992591857910156,-1.844038486480713,2.2408859729766846,-8.5130033493042,2.6044857501983643,3.089109420776367,52575.0,51120.0,52911.0,50089.0,-0.05299058296180472,-0.597655417542055,0.5,-0.4060743749141693,-0.5601624250411987,0.1562720388174057,-0.006614867597818375,-0.04125044867396355,0.4387556314468384,-0.5733780264854431,-0.4083355963230133,-1.010787844657898,5.183431625366211,1.7240331172943115,-4.0059494972229,51337.0,53788.0,52411.0,53402.0,0.5433731093560378,0.25445169291783354,0.5
1.467,TAKEOFF,incipient,1.0,0.5281229019165039,0.027557624503970146,0.10120424628257751,-0.03215917572379112,-0.04596168175339699,0.34656116366386414,1.8970531225204468,-6.235346794128418,4.259067535400391,2.042510509490967,15.584050178527832,-0.3018687069416046,54796.0,56553.0,56685.0,48029.0,0.6,0.0,0.5,-0.4606582522392273,0.6873974800109863,0.15385976433753967,-0.03847023472189903,-0.06403902918100357,0.4313054084777832,-1.2992591857910156,-1.844038486480713,2.2408859729766846,-8.5130033493042,2.6044857501983643,3.089109420776367,52544.0,51412.0,52543.0,49374.0,-0.3000025448675481,0.51961377298239,0.5,-0.4060743749141693,-0.5601624250411987,0.1562720388174057,0.00034024007618427277,-0.03929408639669418,0.4359693229198456,-0.46951091289520264,-0.47381478548049927,-1.0692156553268433,6.8355631828308105,-3.69391131401062,-3.3933463096618652,52323.0,53065.0,51579.0,53176.0,-0.29999491024331576,-0.5196181808098181,0.5
1.488,TAKEOFF,incipient,1.0,0.5280082821846008,0.023936256766319275,0.1387978494167328,-0.016780365258455276,-0.032593559473752975,0.34312158823013306,1.8096202611923218,-6.464536190032959,4.357379913330078,-0.5223327875137329,8.246380805969238,-0.6022215485572815,55802.0,54411.0,55086.0,50066.0,-0.49584470912495343,0.3378431950369732,0.5,-0.4606582522392273,0.6873974800109863,0.15385976433753967,-0.014110715128481388,-0.060406941920518875,0.4287228584289551,-1.385848879814148,-2.1354851722717285,2.3976852893829346,6.787624835968018,3.2401833534240723,1.472051978111267,54229.0,52062.0,50800.0,48276.0,-0.042990913061820846,-0.5984578359367608,0.5,-0.4060743749141693,-0.5601624250411987,0.1562720388174057,0.00194029591511935,-0.03782835230231285,0.43464937806129456,-0.34044313430786133,-0.40117329359054565,-1.1363447904586792,7.322053909301758,-9.480440139770508,-2.4467546939849854,51720.0,53333.0,52072.0,52501.0,0.5390429555631977,0.2635008388178155,0.5
1.507,TAKEOFF,incipient,1.0,0.5280082821846008,0.023936256766319275,0.1387978494167328,0.0013534181052818894,-0.03084864467382431,0.3417387008666992,1.7620550394058228,-6.518030643463135,4.466955184936523,-5.322581768035889,-7.448441028594971,-0.6888055205345154,55704.0,55208.0,55255.0,48894.0,-0.49865169875558873,0.3336862048814208,0.5,-0.4606582522392273,0.6873974800109863,0.15385976433753967,-0.006371182855218649,-0.05674619600176811,0.4274388253688812,-1.2670685052871704,-2.2161777019500732,2.458986759185791,9.152969360351562,0.4489489197731018,2.7083895206451416,52903.0,51158.0,51991.0,49087.0,-0.0379863965010927,-0.5987963206974987,0.5,-0.4060743749141693,-0.5601624250411987,0.1562720388174057,0.0032550678588449955,-0.03677358105778694,0.4315813481807709,-0.19942456483840942,-0.23103642463684082,-1.192897081375122,4.184776782989502,-14.630256652832031,-0.8923601508140564,51624.0,53220.0,52442.0,51909.0,0.5368212932230376,0.26799794615322226,0.5
1.527,TAKEOFF,incipient,1.0,0.5280082821846008,0.023936256766319275,0.1387978494167328,0.0022343341261148453,-0.05038158595561981,0.34372779726982117,1.7602925300598145,-6.18764591217041,4.502071857452393,-16.051136016845703,-20.15291976928711,-0.7426807880401611,54356.0,54279.0,56530.0,49960.0,-0.5014238385083436,0.3295058939921387,0.5,-0.4606582522392273,0.6873974800109863,0.15385976433753967,-0.006371182855218649,-0.05674619600176811,0.4274388253688812,-1.0883482694625854,-2.207098960876465,2.57599139213562,5.842970848083496,-0.7810730934143066,3.9926295280456543,54392.0,51334.0,50123.0,48666.0,-0.032979225138861853,-0.5990929566513366,0.5,-0.40533703565597534,-0.5620495676994324,0.19938543438911438,0.003848136169835925,-0.03617655113339424,0.42744436860084534,-0.11973071843385696,0.03658444061875343,-1.2084461450576782,1.0296529531478882,-10.64233112335205,0.04233245551586151,51445.0,53053.0,52832.0,51498.0,0.5345621134001152,0.27247632359014673,0.5
1.548,TAKEOFF,incipient,1.0,0.5280082821846008,0.023936256766319275,0.1387978494167328,0.022978125140070915,-0.055635709315538406,0.344696044921875,1.7602925300598145,-6.18764591217041,4.502071857452393,-16.051136016845703,-20.15291976928711,-0.7426807880401611,53427.0,54493.0,56924.0,49778.0,0.6,0.0,0.5,-0.46157142519950867,0.6810466051101685,0.19662092626094818,-0.0034177331253886223,-0.04834511876106262,0.4331090450286865,-1.031747817993164,-2.1858181953430176,2.6166296005249023,5.910346984863281,-10.361175537109375,3.534560441970825,53407.0,52661.0,50944.0,46423.0,-0.3000025448675481,0.51961377298239,0.5,-0.40533703565597534,-0.5620495676994324,0.19938543438911438,0.0035086115822196007,-0.03580394387245178,0.4228813648223877,-0.07769432663917542,0.2796947658061981,-1.2119884490966797,-0.08747168630361557,-8.689837455749512,-0.18404778838157654,51741.0,52367.0,52334.0,52096.0,-0.29999491024331576,-0.5196181808098181,0.5
1.567,TAKEOFF,incipient,1.0,0.5280082821846008,0.023936256766319275,0.1387978494167328,0.04247194156050682,-0.05899035558104515,0.344460129737854,1.4810527563095093,-5.777984142303467,4.480205535888672,-20.480396270751953,-22.406007766723633,-1.7452036142349243,53419.0,55204.0,56897.0,48553.0,-0.5041609346433147,0.3253025545235994,0.5,-0.46157142519950867,0.6810466051101685,0.19662092626094818,0.008740440011024475,-0.038566574454307556,0.43436694145202637,-1.031747817993164,-2.1858181953430176,2.6166296005249023,5.910346984863281,-10.361175537109375,3.534560441970825,52895.0,51597.0,51461.0,47059.0,-0.02796974891740452,-0.5993477230669165,0.5,-0.40533703565597534,-0.5620495676994324,0.19938543438911438,-0.002181700663641095,-0.039681896567344666,0.4243907630443573,-0.037602588534355164,0.4852074384689331,-1.2595418691635132,-0.7051053047180176,-5.2256879806518555,0.4680050313472748,51550.0,52414.0,52516.0,51983.0,0.5322655739844789,0.27693565814277715,0.5
1.587,TAKEOFF,incipient,1.0,0.5282655358314514,0.015372790396213531,0.1764870434999466,0.0736093744635582,-0.06542850285768509,0.3553793132305145,1.1186293363571167,-5.302323818206787,4.486152172088623,-18.234621047973633,-29.605215072631836,-1.1056557893753052,53563.0,53954.0,56723.0,49933.0,0.6,0.0,0.5,-0.46157142519950867,0.6810466051101685,0.19662092626094818,0.01567964255809784,-0.03490307927131653,0.43129804730415344,-0.9141286611557007,-1.8329603672027588,2.7776401042938232,3.4528210163116455,-13.659910202026367,3.4313721656799316,52787.0,51891.0,51203.0,46697.0,-0.3000025448675481,0.51961377298239,0.5,-0.40533703565597534,-0.5620495676994324,0.19938543438911438,-0.003883895231410861,-0.03950703889131546,0.41915053129196167,-0.061771247535943985,0.5904703140258789,-1.250482439994812,-0.5524930953979492,-1.503204345703125,0.5491161346435547,51838.0,51922.0,51869.0,52115.0,-0.29999491024331576,-0.5196181808098181,0.5
1.607,TAKEOFF,incipient,1.0,0.5282655358314514,0.015372790396213531,0.1764870434999466,0.0948653444647789,-0.07155928760766983,0.36210501194000244,0.4788486361503601,-4.488015174865723,4.380341053009033,-9.549237251281738,-13.203904151916504,-1.5874743461608887,53118.0,54052.0,56753.0,49386.0,-0.5121600607595744,0.312557310205263,0.5,-0.46157142519950867,0.6810466051101685,0.19662092626094818,0.021916886791586876,-0.031461913138628006,0.42892247438430786,-0.9866382479667664,-1.6165120601654053,2.9059102535247803,1.2340065240859985,-13.906790733337402,4.165489673614502,51557.0,50983.0,52427.0,47347.0,-0.012930992789855043,-0.5998606416706039,0.5,-0.40533703565597534,-0.5620495676994324,0.19938543438911438,-0.005864323116838932,-0.03925042599439621,0.4129149913787842,-0.07574145495891571,0.602626621723175,-1.235775351524353,-0.04990473762154579,2.879518985748291,1.0171802043914795,52431.0,51504.0,51197.0,52323.0,0.5251534161792183,0.29019629473047487,0.5
1.627,TAKEOFF,incipient,1.0,0.5282655358314514,0.015372790396213531,0.1764870434999466,0.10994631052017212,-0.07511678338050842,0.3601682782173157,0.24220184981822968,-4.168966293334961,4.296851634979248,-16.447948455810547,-16.367897033691406,-1.1011964082717896,53239.0,53727.0,56228.0,49597.0,-0.5147550942065985,0.30826480984432175,0.5,-0.46157142519950867,0.6810466051101685,0.19662092626094818,0.02553122490644455,-0.016325945034623146,0.4317207932472229,-0.8523746132850647,-1.390712022781372,3.0437674522399902,1.6410510540008545,-12.376506805419922,3.615614891052246,52107.0,50517.0,51868.0,47573.0,-0.007915799408826816,-0.5999477811607601,0.5,-0.40801334381103516,-0.5635261535644531,0.24217168986797333,-0.013563822954893112,-0.020449992269277573,0.400757372379303,-0.23933470249176025,0.5753547549247742,-1.1570093631744385,-3.8841066360473633,8.289868354797363,1.0720614194869995,52088.0,51882.0,51685.0,51969.0,0.5227090693437725,0.2945763548314209,0.5
1.647,TAKEOFF,incipient,1.0,0.5282655358314514,0.015372790396213531,0.1764870434999466,0.10994631052017212,-0.07511678338050842,0.3601682782173157,0.24220184981822968,-4.168966293334961,4.296851634979248,-16.447948455810547,-16.367897033691406,-1.1011964082717896,53564.0,53941.0,55968.0,48988.0,0.6,0.0,0.5,-0.45731034874916077,0.679620087146759,0.24110595881938934,0.04056265577673912,-0.026537394151091576,0.4208275079727173,-0.8523746132850647,-1.390712022781372,3.0437674522399902,1.6410510540008545,-12.376506805419922,3.615614891052246,52493.0,50704.0,51496.0,47220.0,-0.3000025448675481,0.51961377298239,0.5,-0.40801334381103516,-0.5635261535644531,0.24217168986797333,-0.013068019412457943,-0.019190555438399315,0.38933444023132324,-0.2768383324146271,0.43971046805381775,-1.1682279109954834,0.7761209607124329,4.408109188079834,1.0986695289611816,52088.0,51882.0,51685.0,51969.0,-0.29999491024331576,-0.5196181808098181,0.5
1.667,TAKEOFF,incipient,1.0,0.5282655358314514,0.015372790396213531,0.1764870434999466,0.13223540782928467,-0.07417993247509003,0.358694851398468,0.004354668781161308,-3.7933473587036133,4.191747665405273,-15.13382625579834,-18.18505096435547,-1.9995161294937134,52873.0,52878.0,56228.0,50242.0,-0.5198370563062334,0.2996154783900023,0.5,-0.45731034874916077,0.679620087146759,0.24110595881938934,0.05126473307609558,-0.03021065518260002,0.4114643931388855,-0.6946252584457397,-0.9528667330741882,3.160804510116577,3.83892822265625,-10.240765571594238,3.461393117904663,52676.0,50942.0,51257.0,46898.0,0.0021158964749537533,-0.5999962691401567,0.5,-0.40801334381103516,-0.5635261535644531,0.24217168986797333,-0.01442960649728775,-0.01825416460633278,0.38206809759140015,-0.24612273275852203,0.3505423367023468,-1.1460198163986206,5.136035442352295,4.879007816314697,1.7587311267852783,52391.0,51782.0,51427.0,51947.0,0.5177109554432084,0.3032744081093559,0.5
1.687,TAKEOFF,incipient,1.0,0.5374967455863953,0.0055448636412620544,0.21535912156105042,0.13223540782928467,-0.07417993247509003,0.358694851398468,-0.36900293827056885,-3.469402313232422,4.16929292678833,-10.643586158752441,-21.381553649902344,-2.0210790634155273,53403.0,54628.0,55774.0,47756.0,-0.5223236297895767,0.2952592517829732,0.5,-0.45731034874916077,0.679620087146759,0.24110595881938934,0.05490351468324661,-0.027466703206300735,0.4069780111312866,-0.6946252584457397,-0.9528667330741882,3.160804510116577,3.83892822265625,-10.240765571594238,3.461393117904663,52546.0,50574.0,51211.0,47160.0,0.0071316978803723135,-0.5999576142406587,0.5,-0.40801334381103516,-0.5635261535644531,0.24217168986797333,-0.01549338735640049,-0.017499279230833054,0.3738330602645874,-0.1032368615269661,0.260240763425827,-1.111555814743042,9.101726531982422,0.20051513612270355,2.518022060394287,51650.0,52445.0,52228.0,51102.0,0.5151575376873567,0.3075917933949142,0.5
1.707,TAKEOFF,incipient,1.0,0.5374967455863953,0.0055448636412620544,0.21535912156105042,0.1535622924566269,-0.07411179691553116,0.35928043723106384,-0.8684661388397217,-2.6377902030944824,4.023453712463379,-9.985873222351074,-20.64681625366211,-3.2375619411468506,52146.0,52849.0,56602.0,49909.0,0.6,0.0,0.5,-0.45731034874916077,0.679620087146759,0.24110595881938934,0.06793243438005447,-0.029389457777142525,0.3894686698913574,-0.6522777676582336,-0.5389149785041809,3.2800991535186768,-4.949855804443359,-8.711019515991211,2.155791997909546,52479.0,50617.0,51487.0,47024.0,-0.3000025448675481,0.51961377298239,0.5,-0.40801334381103516,-0.5635261535644531,0.24217168986797333,0.0019663115963339806,-0.026643216609954834,0.36685535311698914,0.16292230784893036,0.10705540329217911,-1.0309810638427734,10.232317924499512,0.7752824425697327,1.2765601873397827,52513.0,51565.0,51203.0,51978.0,-0.29999491024331576,-0.5196181808098181,0.5
1.727,TAKEOFF,incipient,1.0,0.5374967455863953,0.0055448636412620544,0.21535912156105042,0.1641692966222763,-0.05885494500398636,0.3566368818283081,-1.173337459564209,-2.2548043727874756,4.023357391357422,-13.261225700378418,-16.675582885742188,-1.667863130569458,53251.0,52117.0,56631.0,48915.0,-0.5271870927245308,0.2864851990324403,0.5,-0.45731034874916077,0.679620087146759,0.24110595881938934,0.0583038255572319,-0.02461046352982521,0.37845179438591003,-0.7646313905715942,-0.40459367632865906,3.318391799926758,-6.059127330780029,-6.535481929779053,0.878588855266571,51997.0,49648.0,51998.0,48573.0,0.01716145491569227,-0.5997545201706916,0.5,-0.404623419046402,-0.5682514309883118,0.27964022755622864,0.0016095548635348678,-0.02732011117041111,0.35894671082496643,0.3292900621891022,0.10603537410497665,-1.0051227807998657,4.619466304779053,-1.4245926141738892,1.1664340496063232,52444.0,52715.0,51177.0,50814.0,0.5099428728211066,0.31616177260851225,0.5
1.747,TAKEOFF,incipient,1.0,0.5374967455863953,0.0055448636412620544,0.21535912156105042,0.17284947633743286,-0.056482911109924316,0.3558409512042999,-1.173337459564209,-2.2548043727874756,4.023357391357422,-13.261225700378418,-16.675582885742188,-1.667863130569458,53234.0,53595.0,55021.0,49133.0,0.6,0.0,0.5,-0.4516243040561676,0.6756291389465332,0.27883678674697876,0.05983205512166023,-0.022301584482192993,0.37195295095443726,-0.7646313905715942,-0.40459367632865906,3.318391799926758,-6.059127330780029,-6.535481929779053,0.878588855266571,51786.0,49915.0,52177.0,47520.0,-0.3000025448675481,0.51961377298239,0.5,-0.404623419046402,-0.5682514309883118,0.27964022755622864,0.005968315526843071,-0.019508346915245056,0.35345855355262756,0.34837043285369873,0.10653846710920334,-1.0021288394927979,0.9711484313011169,-5.037543773651123,0.9685588479042053,51698.0,51697.0,51796.0,51735.0,-0.29999491024331576,-0.5196181808098181,0.5
1.767,TAKEOFF,incipient,1.0,0.5374967455863953,0.0055448636412620544,0.21535912156105042,0.1785951852798462,-0.05138242989778519,0.3504398763179779,-1.3852951526641846,-1.9254282712936401,3.935507297515869,-7.057868957519531,-20.60661506652832,-4.435750961303711,53806.0,55003.0,54319.0,47098.0,-0.5319031815717694,0.27763105992274945,0.5,-0.4516243040561676,0.6756291389465332,0.27883678674697876,0.053470429033041,-0.01718999445438385,0.3592090308666229,-0.9196533560752869,-0.2118578404188156,3.368140459060669,-6.035372257232666,-6.439564228057861,0.36625102162361145,51932.0,50964.0,52177.0,46993.0,0.02718641450092862,-0.5993837659351341,0.5,-0.404623419046402,-0.5682514309883118,0.27964022755622864,-0.021857310086488724,-0.0010786839993670583,0.32975172996520996,0.21312099695205688,0.4169110655784607,-0.9669241905212402,-1.7752424478530884,-4.623541355133057,1.629325032234192,51435.0,52731.0,52671.0,51049.0,0.50458565445401,0.32464336943670724,0.5
1.787,TAKEOFF,incipient,1.0,0.5514834523200989,0.001923855277709663,0.25183653831481934,0.17442934215068817,-0.04572063684463501,0.34611770510673523,-1.4392822980880737,-1.5397717952728271,3.8742904663085938,-0.27041196823120117,-21.230022430419922,-2.7617406845092773,52656.0,53404.0,55481.0,48955.0,-0.5342055471014373,0.2731747306140413,0.5,-0.4516243040561676,0.6756291389465332,0.27883678674697876,0.053869638592004776,-0.014036145992577076,0.3511829376220703,-1.0291575193405151,0.11752840876579285,3.414494514465332,4.782227039337158,-8.66053295135498,1.0417308807373047,52521.0,51340.0,51774.0,46207.0,0.0321962194080722,-0.5991355468137634,0.5,-0.404623419046402,-0.5682514309883118,0.27964022755622864,-0.02461080625653267,-0.00011971574713243172,0.3225659430027008,0.15317048132419586,0.5274001359939575,-0.926550567150116,-2.340106964111328,-3.256714105606079,2.054687976837158,51397.0,52020.0,52770.0,51709.0,0.5018540541622235,0.3288502825313368,0.5
1.807,TAKEOFF,incipient,1.0,0.5514834523200989,0.001923855277709663,0.25183653831481934,0.1688917577266693,-0.013887381181120872,0.3489941656589508,-1.456944227218628,-1.0877807140350342,3.7772254943847656,4.042779922485352,-16.674673080444336,-3.429356575012207,52609.0,53263.0,56927.0,46922.0,-0.5364705779581741,0.26869930961061783,0.5,-0.4516243040561676,0.6756291389465332,0.27883678674697876,0.053728602826595306,-0.010596081614494324,0.34593436121940613,-1.0291575193405151,0.11752840876579285,3.414494514465332,4.782227039337158,-8.66053295135498,1.0417308807373047,52862.0,50404.0,51377.0,47217.0,0.03720377417886333,-0.5988454551775843,0.5,-0.404623419046402,-0.5682514309883118,0.27964022755622864,-0.02590666338801384,-0.0006301935645751655,0.3171129822731018,0.12140898406505585,0.5897312164306641,-0.8842791318893433,1.3151237964630127,0.3078189194202423,2.6519603729248047,52183.0,52018.0,52044.0,51577.0,0.49908738018564847,0.3330342128662248,0.5
1.828,TAKEOFF,incipient,1.0,0.5514834523200989,0.001923855277709663,0.25183653831481934,0.16206565499305725,-0.02095954865217209,0.3417901396751404,-1.5648252964019775,-0.2701801061630249,3.7188148498535156,0.9274095892906189,-18.213703155517578,-3.3084850311279297,51254.0,52485.0,56391.0,49551.0,0.6,0.0,0.5,-0.4516243040561676,0.6756291389465332,0.27883678674697876,0.05301655828952789,-0.007297950331121683,0.3391856849193573,-0.9392688870429993,0.2675473392009735,3.441707134246826,3.9381279945373535,-7.9456787109375,1.0856199264526367,52448.0,50459.0,51519.0,46451.0,-0.3000025448675481,0.51961377298239,0.5,-0.40716367959976196,-0.5641659498214722,0.3098655343055725,-0.016529908403754234,-0.005759907886385918,0.30841705203056335,0.22311446070671082,0.46820688247680664,-0.773457944393158,5.2295331954956055,6.7480573654174805,2.0479347705841064,52183.0,52018.0,52044.0,51577.0,-0.29999491024331576,-0.5196181808098181,0.5
1.851,TAKEOFF,incipient,1.0,0.5514834523200989,0.001923855277709663,0.25183653831481934,0.16237281262874603,-0.015832504257559776,0.333896279335022,-1.5648252964019775,-0.2701801061630249,3.7188148498535156,0.9274095892906189,-18.213703155517578,-3.3084850311279297,52252.0,54062.0,55376.0,47902.0,0.6,0.0,0.5,-0.4472375512123108,0.6786612272262573,0.3121725022792816,0.03842809423804283,0.021891595795750618,0.3346017003059387,-1.0524797439575195,0.5021896958351135,3.525752544403076,2.636934995651245,-6.760751724243164,0.6177738904953003,51882.0,50151.0,52172.0,47293.0,-0.3000025448675481,0.51961377298239,0.5,-0.40716367959976196,-0.5641659498214722,0.3098655343055725,-0.017993930727243423,-0.00655705900862813,0.30077481269836426,0.35967186093330383,0.32440733909606934,-0.7294925451278687,10.098952293395996,7.080600261688232,1.9917402267456055,52905.0,51506.0,51459.0,52135.0,-0.29999491024331576,-0.5196181808098181,0.5
1.869,TAKEOFF,incipient,1.0,0.5514834523200989,0.001923855277709663,0.25183653831481934,0.16237281262874603,-0.015832504257559776,0.333896279335022,-1.5174601078033447,0.09378330409526825,3.6547298431396484,3.9708914756774902,-17.59272003173828,-1.5945006608963013,52511.0,53456.0,55310.0,48479.0,0.6,0.0,0.5,-0.4472375512123108,0.6786612272262573,0.3121725022792816,0.031153306365013123,0.03150789439678192,0.3370102643966675,-1.0309691429138184,0.6694750785827637,3.568331480026245,2.033860921859741,-1.794930100440979,0.41431671380996704,51882.0,50151.0,52172.0,47293.0,-0.3000025448675481,0.51961377298239,0.5,-0.40716367959976196,-0.5641659498214722,0.3098655343055725,-0.026367954909801483,-0.007442624308168888,0.2910732328891754,0.35967186093330383,0.32440733909606934,-0.7294925451278687,10.098952293395996,7.080600261688232,1.9917402267456055,53134.0,52396.0,51148.0,51205.0,-0.29999491024331576,-0.5196181808098181,0.5
1.889,TAKEOFF,incipient,1.0,0.5577683448791504,0.004518326837569475,0.2856120765209198,0.13596822321414948,0.009047993458807468,0.313460111618042,-1.4549323320388794,0.5749151706695557,3.5743956565856934,1.203874111175537,-13.884833335876465,-3.5608789920806885,54222.0,52542.0,54837.0,48426.0,-0.545154228046323,0.2506129837881861,0.5,-0.4472375512123108,0.6786612272262573,0.3121725022792816,0.030594810843467712,0.038259346038103104,0.3213927149772644,-0.9300850629806519,0.540686309337616,3.600531578063965,4.028693199157715,7.655981063842773,-1.442591667175293,52978.0,49447.0,50912.0,48311.0,0.057204495389476764,-0.5972668128292709,0.5,-0.40716367959976196,-0.5641659498214722,0.3098655343055725,-0.02709471806883812,-0.009372754022479057,0.28449633717536926,0.7079554796218872,0.1411665976047516,-0.6806116104125977,6.018909931182861,3.4517929553985596,2.0431063175201416,52314.0,51462.0,52107.0,52212.0,0.4876738510732459,0.3495342829814974,0.5
1.908,TAKEOFF,incipient,1.0,0.5577683448791504,0.004518326837569475,0.2856120765209198,0.13261771202087402,0.01384944561868906,0.30839601159095764,-1.513655185699463,0.8700026869773865,3.6110050678253174,2.463999032974243,-8.427343368530273,-5.324447154998779,52466.0,53361.0,55176.0,49223.0,-0.545154228046323,0.2506129837881861,0.5,-0.4472375512123108,0.6786612272262573,0.3121725022792816,0.02941969968378544,0.04022714123129845,0.30452316999435425,-0.9300850629806519,0.540686309337616,3.600531578063965,4.028693199157715,7.655981063842773,-1.442591667175293,52496.0,50720.0,51360.0,47569.0,0.057204495389476764,-0.5972668128292709,0.5,-0.40716367959976196,-0.5641659498214722,0.3098655343055725,-0.027529887855052948,-0.011793346144258976,0.2773693799972534,0.8030500411987305,0.07120782136917114,-0.6380470991134644,1.7748875617980957,2.9671919345855713,2.808851480484009,52314.0,51462.0,52107.0,52212.0,0.4876738510732459,0.3495342829814974,0.5
1.928,TAKEOFF,incipient,1.0,0.5577683448791504,0.004518326837569475,0.2856120765209198,0.13261771202087402,0.01384944561868906,0.30839601159095764,-1.4488400220870972,0.9998489022254944,3.521782875061035,6.734923362731934,-0.6349886059761047,-4.83555793762207,51727.0,53380.0,55972.0,48880.0,0.6,0.0,0.5,-0.4472375512123108,0.6786612272262573,0.3121725022792816,0.02761070616543293,0.04310005158185959,0.29812654852867126,-0.8180263638496399,0.3784133791923523,3.5678348541259766,6.524294853210449,7.494743347167969,0.38079360127449036,52942.0,50806.0,51145.0,47093.0,-0.3000025448675481,0.51961377298239,0.5,-0.41111674904823303,-0.5650569200515747,0.33699455857276917,-0.027529887855052948,-0.011793346144258976,0.2773693799972534,0.8030500411987305,0.07120782136917114,-0.6380470991134644,1.7748875617980957,2.9671919345855713,2.808851480484009,52312.0,51795.0,52225.0,51770.0,-0.29999491024331576,-0.5196181808098181,0.5
1.948,TAKEOFF,incipient,1.0,0.5577683448791504,0.004518326837569475,0.2856120765209198,0.12539450824260712,0.026219699531793594,0.3039572536945343,-1.3709297180175781,0.9909480214118958,3.478494882583618,9.580130577087402,1.2286876440048218,-6.069917678833008,51727.0,53380.0,55972.0,48880.0,0.6,0.0,0.5,-0.4472375512123108,0.6786612272262573,0.3121725022792816,0.028452230617403984,0.04177091643214226,0.2862417697906494,-0.6352550983428955,0.22052240371704102,3.6245899200439453,11.626914978027344,3.973308563232422,-0.7482679486274719,52942.0,50806.0,51145.0,47093.0,-0.3000025448675481,0.51961377298239,0.5,-0.41111674904823303,-0.5650569200515747,0.33699455857276917,-0.025901194661855698,-0.019928427413105965,0.26127660274505615,0.856341540813446,0.0015479368157684803,-0.6035275459289551,-2.9519574642181396,2.523284912109375,2.1774096488952637,52312.0,51795.0,52225.0,51770.0,-0.29999491024331576,-0.5196181808098181,0.5
1.967,TAKEOFF,incipient,1.0,0.5577683448791504,0.004518326837569475,0.2856120765209198,0.14585605263710022,0.02580600045621395,0.30756959319114685,-1.0248734951019287,0.8558008074760437,3.334106206893921,13.100176811218262,7.1293439865112305,-5.394527912139893,53094.0,53143.0,54263.0,49622.0,0.6,0.0,0.5,-0.4426185190677643,0.6827327609062195,0.34002023935317993,0.028452230617403984,0.04177091643214226,0.2862417697906494,-0.4131726622581482,0.15234693884849548,3.613651752471924,13.408702850341797,-1.6573705673217773,0.40228304266929626,53072.0,51072.0,51074.0,47006.0,-0.3000025448675481,0.51961377298239,0.5,-0.41111674904823303,-0.5650569200515747,0.33699455857276917,-0.01907399855554104,-0.0249585323035717,0.2603236734867096,0.7881565093994141,-0.10398060828447342,-0.5809025764465332,-3.20358943939209,2.143784761428833,3.0921988487243652,52367.0,51429.0,52443.0,52477.0,-0.29999491024331576,-0.5196181808098181,0.5
1.987,TAKEOFF,incipient,1.0,0.5577683448791504,0.004518326837569475,0.2856120765209198,0.13097304105758667,0.02300713025033474,0.2948920726776123,-0.7650381922721863,0.7736136317253113,3.3130850791931152,11.191112518310547,3.910952568054199,-4.618457794189453,52816.0,52835.0,54409.0,49460.0,-0.5551505457033631,0.22761342580185853,0.5,-0.4426185190677643,0.6827327609062195,0.34002023935317993,0.027680719271302223,0.0436483696103096,0.2777547836303711,-0.15482193231582642,0.18854764103889465,3.6174285411834717,12.930931091308594,-4.106521129608154,0.23234927654266357,52952.0,51095.0,51487.0,46741.0,0.08211283733661012,-0.5943546768929571,0.5,-0.41111674904823303,-0.5650569200515747,0.33699455857276917,-0.017281290143728256,-0.028670884668827057,0.2550758421421051,0.7406914830207825,-0.15908266603946686,-0.5235925316810608,-5.2227373123168945,-0.07727034389972687,4.548405170440674,53054.0,51664.0,51782.0,52010.0,0.47264170068511796,0.36960766059901856,0.5
2.007,TAKEOFF,incipient,1.0,0.5691624283790588,0.006680739112198353,0.317687064409256,0.12832871079444885,0.025247612968087196,0.28904303908348083,-0.7650381922721863,0.7736136317253113,3.3130850791931152,11.191112518310547,3.910952568054199,-4.618457794189453,53817.0,53653.0,53515.0,48645.0,0.6,0.0,0.5,-0.4426185190677643,0.6827327609062195,0.34002023935317993,0.027084100991487503,0.04480302333831787,0.27488377690315247,-0.15482193231582642,0.18854764103889465,3.6174285411834717,12.930931091308594,-4.106521129608154,0.23234927654266357,52253.0,51328.0,52137.0,46344.0,-0.3000025448675481,0.51961377298239,0.5,-0.41111674904823303,-0.5650569200515747,0.33699455857276917,-0.014245045371353626,-0.03051837533712387,0.24896058440208435,0.7406914830207825,-0.15908266603946686,-0.5235925316810608,-5.2227373123168945,-0.07727034389972687,4.548405170440674,52552.0,51842.0,52453.0,51613.0,-0.29999491024331576,-0.5196181808098181,0.5
2.028,TAKEOFF,incipient,1.0,0.5691624283790588,0.006680739112198353,0.317687064409256,0.12623201310634613,0.031560543924570084,0.28901031613349915,-0.32249322533607483,0.8264952301979065,3.1646170616149902,13.581403732299805,-7.808213710784912,-5.156538009643555,52418.0,53708.0,54730.0,48670.0,-0.5588784426767759,0.21829999155103433,0.5,-0.4426185190677643,0.6827327609062195,0.34002023935317993,0.05702938139438629,0.003092455677688122,0.25329113006591797,0.6977757811546326,0.15464922785758972,3.5422213077545166,6.988681793212891,-4.419328212738037,0.404800146818161,54063.0,51412.0,50853.0,46397.0,0.09203843786555417,-0.5928987484851596,0.5,-0.41111674904823303,-0.5650569200515747,0.33699455857276917,-0.012636128813028336,-0.031288620084524155,0.24219687283039093,0.5848564505577087,-0.16114652156829834,-0.3028283715248108,-3.6074588298797607,-1.8285863399505615,3.7887279987335205,52640.0,52482.0,52353.0,50949.0,0.4663961286819509,0.37745814489886037,0.5
2.047,TAKEOFF,incipient,1.0,0.5691624283790588,0.006680739112198353,0.317687064409256,0.12361063808202744,0.03620680421590805,0.2886521518230438,-0.1957293450832367,0.9224007725715637,3.124859571456909,5.5474653244018555,-1.5896629095077515,-5.698420524597168,50972.0,54195.0,54811.0,48705.0,0.6,0.0,0.5,-0.4426185190677643,0.6827327609062195,0.34002023935317993,0.06514906883239746,-0.006568665150552988,0.2430967092514038,0.7947462797164917,0.2659432291984558,3.4969911575317383,-1.316421389579773,-12.217008590698242,-0.989859402179718,53714.0,51751.0,51139.0,46352.0,-0.3000025448675481,0.51961377298239,0.5,-0.4052183926105499,-0.5695070624351501,0.36356037855148315,-0.004846313036978245,-0.03918443247675896,0.23879674077033997,0.5529425740242004,-0.16778281331062317,-0.19642847776412964,-5.016163349151611,-0.8509764671325684,4.3605146408081055,52935.0,51577.0,52288.0,51664.0,-0.29999491024331576,-0.5196181808098181,0.5
2.069,TAKEOFF,incipient,1.0,0.5691624283790588,0.006680739112198353,0.317687064409256,0.12041662633419037,0.03662930801510811,0.28473106026649475,-0.09893389046192169,1.0073351860046387,3.0214028358459473,6.141079902648926,-8.38801383972168,-4.15957498550415,50972.0,54195.0,54811.0,48705.0,0.6,0.0,0.5,-0.43549782037734985,0.6794875264167786,0.3658747375011444,0.06514906883239746,-0.006568665150552988,0.2430967092514038,0.7947462797164917,0.2659432291984558,3.4969911575317383,-1.316421389579773,-12.217008590698242,-0.989859402179718,53714.0,51751.0,51139.0,46352.0,-0.3000025448675481,0.51961377298239,0.5,-0.4052183926105499,-0.5695070624351501,0.36356037855148315,-0.014175370335578918,-0.03757558390498161,0.2319878488779068,0.5529425740242004,-0.16778281331062317,-0.19642847776412964,-5.016163349151611,-0.8509764671325684,4.3605146408081055,52935.0,51577.0,52288.0,51664.0,-0.29999491024331576,-0.5196181808098181,0.5
2.088,TAKEOFF,incipient,1.0,0.5758571624755859,0.006797630339860916,0.34713706374168396,0.09275385737419128,0.013806815259158611,0.264502614736557,0.21088236570358276,1.3149285316467285,2.8651368618011475,6.539609432220459,-1.9938386678695679,-2.790148973464966,52485.0,54662.0,54003.0,48051.0,0.6,0.0,0.5,-0.43549782037734985,0.6794875264167786,0.3658747375011444,0.058527957648038864,-0.00831745658069849,0.24095048010349274,0.388293594121933,0.6474918127059937,3.528265953063965,-21.300779342651367,-8.04651927947998,0.37232813239097595,52981.0,50165.0,52506.0,47063.0,-0.3000025448675481,0.51961377298239,0.5,-0.4052183926105499,-0.5695070624351501,0.36356037855148315,-0.005598712712526321,-0.0448308028280735,0.22882415354251862,0.2970540225505829,-0.15960180759429932,-0.016486695036292076,-10.159627914428711,3.0193264484405518,3.9438233375549316,52826.0,50905.0,52463.0,52213.0,-0.29999491024331576,-0.5196181808098181,0.5
2.107,TAKEOFF,incipient,1.0,0.5758571624755859,0.006797630339860916,0.34713706374168396,0.08748125284910202,0.011325356550514698,0.25227880477905273,0.21088236570358276,1.3149285316467285,2.8651368618011475,6.539609432220459,-1.9938386678695679,-2.790148973464966,52485.0,54662.0,54003.0,48051.0,0.6,0.0,0.5,-0.43549782037734985,0.6794875264167786,0.3658747375011444,0.057333867996931076,-0.011363650672137737,0.23909123241901398,0.388293594121933,0.6474918127059937,3.528265953063965,-21.300779342651367,-8.04651927947998,0.37232813239097595,51729.0,49425.0,53864.0,47527.0,-0.3000025448675481,0.51961377298239,0.5,-0.4052183926105499,-0.5695070624351501,0.36356037855148315,-0.017114557325839996,-0.03224019706249237,0.220942422747612,0.2970540225505829,-0.15960180759429932,-0.016486695036292076,-10.159627914428711,3.0193264484405518,3.9438233375549316,52826.0,50905.0,52463.0,52213.0,-0.29999491024331576,-0.5196181808098181,0.5
2.127,TAKEOFF,incipient,1.0,0.5758571624755859,0.006797630339860916,0.34713706374168396,0.09474358707666397,-0.007861733436584473,0.25866883993148804,0.37071412801742554,1.3582332134246826,2.7501065731048584,4.3279194831848145,1.0911951065063477,-3.1311328411102295,52803.0,53791.0,53974.0,49228.0,0.6,0.0,0.5,-0.43549782037734985,0.6794875264167786,0.3658747375011444,0.051105305552482605,-0.01055025402456522,0.23808197677135468,-0.3730664551258087,0.9221712946891785,3.5417001247406006,-13.518301010131836,-6.034957408905029,-0.8899926543235779,52925.0,49216.0,52216.0,48242.0,-0.3000025448675481,0.51961377298239,0.5,-0.4052183926105499,-0.5695070624351501,0.36356037855148315,-0.016690723598003387,-0.03199737146496773,0.21736174821853638,-0.24742254614830017,-0.14990279078483582,0.14519654214382172,-10.179317474365234,1.1298589706420898,3.587721347808838,52483.0,51125.0,52967.0,52029.0,-0.29999491024331576,-0.5196181808098181,0.5
2.148,TAKEOFF,incipient,1.0,0.5758571624755859,0.006797630339860916,0.34713706374168396,0.08640849590301514,-0.00925026647746563,0.2623852491378784,0.6109364032745361,1.2520692348480225,2.622776985168457,0.909991443157196,-0.052257660776376724,-4.1201276779174805,52980.0,53705.0,53090.0,49321.0,-0.5691207837016266,0.1900040356383159,0.5,-0.43549782037734985,0.6794875264167786,0.3658747375011444,0.0546673908829689,-0.014536635018885136,0.23273876309394836,-0.3730664551258087,0.9221712946891785,3.5417001247406006,-13.518301010131836,-6.034957408905029,-0.8899926543235779,53330.0,49846.0,52053.0,47091.0,0.12164980250509858,-0.5875383609182216,0.5,-0.40433719754219055,-0.5737207531929016,0.3862788677215576,0.006805894430726767,-0.0477103628218174,0.21410296857357025,-0.24742254614830017,-0.14990279078483582,0.14519654214382172,-10.179317474365234,1.1298589706420898,3.587721347808838,52798.0,51276.0,52667.0,51857.0,0.4468842975813482,0.4003678615663662,0.5
2.167,TAKEOFF,incipient,1.0,0.5758571624755859,0.006797630339860916,0.34713706374168396,0.08259061723947525,-0.011392978951334953,0.25173184275627136,0.62062668800354,1.2423807382583618,2.5006258487701416,-4.449643611907959,11.756402015686035,-1.3480640649795532,51790.0,55248.0,54504.0,46222.0,0.6,0.0,0.5,-0.43299195170402527,0.6796664595603943,0.3875996470451355,0.05192431062459946,-0.015140488743782043,0.22860418260097504,-0.5685430765151978,1.0033924579620361,3.5579729080200195,-3.456411361694336,-4.355004787445068,-0.5746745467185974,52045.0,50884.0,52190.0,46929.0,-0.3000025448675481,0.51961377298239,0.5,-0.40433719754219055,-0.5737207531929016,0.3862788677215576,0.02244010753929615,-0.05829518660902977,0.2118421494960785,-0.31778934597969055,-0.34522557258605957,0.2583475708961487,-6.968936443328857,-1.2219146490097046,3.829014778137207,52880.0,51158.0,52594.0,51799.0,-0.29999491024331576,-0.5196181808098181,0.5
2.187,TAKEOFF,incipient,1.0,0.5758571624755859,0.006797630339860916,0.34713706374168396,0.08259061723947525,-0.011392978951334953,0.25173184275627136,0.5698941946029663,1.1197433471679688,2.4660651683807373,-6.524825572967529,6.456284046173096,-2.6013002395629883,52042.0,52479.0,55533.0,48442.0,-0.5722179326865102,0.18046228833741546,0.5,-0.43299195170402527,0.6796664595603943,0.3875996470451355,0.04712009057402611,-0.014579704031348228,0.2239079624414444,-0.6084802150726318,1.1095572710037231,3.5613162517547607,1.4935649633407593,-4.400057792663574,0.053445618599653244,52045.0,50884.0,52190.0,46929.0,0.1314559140976726,-0.5854223626141603,0.5,-0.40433719754219055,-0.5737207531929016,0.3862788677215576,0.02244010753929615,-0.05829518660902977,0.2118421494960785,-0.31778934597969055,-0.34522557258605957,0.2583475708961487,-6.968936443328857,-1.2219146490097046,3.829014778137207,52880.0,51158.0,52594.0,51799.0,0.4401280427883727,0.4077834056840424,0.5
2.209,TAKEOFF,incipient,1.0,0.5758571624755859,0.006797630339860916,0.34713706374168396,0.07746320217847824,0.00575681496411562,0.24531465768814087,0.27415797114372253,1.0152631998062134,2.4649627208709717,-6.742318153381348,8.546767234802246,-2.6514575481414795,51246.0,54120.0,54979.0,48178.0,0.6,0.0,0.5,-0.43299195170402527,0.6796664595603943,0.3875996470451355,0.04712009057402611,-0.014579704031348228,0.2239079624414444,-0.6084802150726318,1.1095572710037231,3.5613162517547607,1.4935649633407593,-4.400057792663574,0.053445618599653244,53214.0,51507.0,51290.0,46176.0,-0.3000025448675481,0.51961377298239,0.5,-0.40433719754219055,-0.5737207531929016,0.3862788677215576,0.02244010753929615,-0.05829518660902977,0.2118421494960785,-0.31778934597969055,-0.34522557258605957,0.2583475708961487,-6.968936443328857,-1.2219146490097046,3.829014778137207,52880.0,51158.0,52594.0,51799.0,-0.29999491024331576,-0.5196181808098181,0.5
2.228,TAKEOFF,incipient,1.0,0.5838521718978882,0.005897597875446081,0.3773624897003174,0.07186468690633774,-0.0008408314897678792,0.24266596138477325,0.27415797114372253,1.0152631998062134,2.4649627208709717,-6.742318153381348,8.546767234802246,-2.6514575481414795,51246.0,54120.0,54979.0,48178.0,-0.5751551193032556,0.170870093168049,0.5,-0.43299195170402527,0.6796664595603943,0.3875996470451355,0.04712009057402611,-0.014579704031348228,0.2239079624414444,-0.6084802150726318,1.1095572710037231,3.5613162517547607,1.4935649633407593,-4.400057792663574,0.053445618599653244,53214.0,51507.0,51290.0,46176.0,0.1412252774547866,-0.5831427106702256,0.5,-0.40433719754219055,-0.5737207531929016,0.3862788677215576,0.02244010753929615,-0.05829518660902977,0.2118421494960785,-0.33739566802978516,-0.43177157640457153,0.3440142571926117,-4.617597579956055,-2.633697271347046,2.9562337398529053,52880.0,51158.0,52594.0,51799.0,0.4332487510893745,0.41508495477371515,0.5
2.249,TAKEOFF,incipient,1.0,0.5838521718978882,0.005897597875446081,0.3773624897003174,0.06653209775686264,0.00751139922067523,0.23505599796772003,0.15788830816745758,0.9386016726493835,2.3215432167053223,-10.21402359008789,-1.0886181592941284,-2.6970431804656982,52588.0,52598.0,54928.0,48292.0,0.6,0.0,0.5,-0.43299195170402527,0.6796664595603943,0.3875996470451355,0.04712009057402611,-0.014579704031348228,0.2239079624414444,-0.6084802150726318,1.1095572710037231,3.5613162517547607,1.4935649633407593,-4.400057792663574,0.053445618599653244,53214.0,51507.0,51290.0,46176.0,-0.3000025448675481,0.51961377298239,0.5,-0.40433719754219055,-0.5737207531929016,0.3862788677215576,0.02383112534880638,-0.05709374323487282,0.20680446922779083,-0.4108310639858246,-0.3644375801086426,0.410783588886261,-1.944284439086914,-6.230381965637207,2.932995319366455,53428.0,50929.0,52027.0,51896.0,-0.29999491024331576,-0.5196181808098181,0.5
2.269,TAKEOFF,incipient,1.0,0.5838521718978882,0.005897597875446081,0.3773624897003174,0.060354623943567276,0.005433856043964624,0.22448278963565826,-0.09137973934412003,0.9216883182525635,2.326007843017578,-5.495300769805908,-0.20326919853687286,-3.082223653793335,50905.0,52039.0,55608.0,50027.0,-0.5779315224672725,0.16123013160901553,0.5,-0.43299195170402527,0.6796664595603943,0.3875996470451355,0.04712009057402611,-0.014579704031348228,0.2239079624414444,-0.6084802150726318,1.1095572710037231,3.5613162517547607,1.4935649633407593,-4.400057792663574,0.053445618599653244,53214.0,51507.0,51290.0,46176.0,0.15095516157063216,-0.5807000423585177,0.5,-0.40433719754219055,-0.5737207531929016,0.3862788677215576,0.00587116926908493,-0.03283524140715599,0.19680622220039368,-0.618197500705719,-0.06298480927944183,0.48042458295822144,-4.545693874359131,-11.817352294921875,3.7044949531555176,53428.0,50929.0,52027.0,51896.0,0.4262483455764632,0.4222704677020736,0.5
2.288,TAKEOFF,incipient,1.0,0.5838521718978882,0.005897597875446081,0.3773624897003174,0.062373094260692596,0.005048247054219246,0.22267840802669525,-0.1928843855857849,0.9191475510597229,2.212804079055786,-1.0222643613815308,2.997784376144409,-1.8957486152648926,52952.0,52241.0,54741.0,48860.0,0.6,0.0,0.5,-0.43299195170402527,0.6796664595603943,0.3875996470451355,0.04712009057402611,-0.014579704031348228,0.2239079624414444,-0.6084802150726318,1.1095572710037231,3.5613162517547607,1.4935649633407593,-4.400057792663574,0.053445618599653244,53214.0,51507.0,51290.0,46176.0,-0.3000025448675481,0.51961377298239,0.5,-0.40433719754219055,-0.5737207531929016,0.3862788677215576,0.00587963592261076,-0.030726764351129532,0.19045870006084442,-0.6941452622413635,0.17976318299770355,0.5513017177581787,-2.998947858810425,-10.243483543395996,2.4964070320129395,51884.0,51646.0,53900.0,51341.0,-0.29999491024331576,-0.5196181808098181,0.5
2.308,TAKEOFF,incipient,1.0,0.5838521718978882,0.005897597875446081,0.3773624897003174,0.062373094260692596,0.005048247054219246,0.22267840802669525,-0.20219197869300842,0.785491943359375,2.145040512084961,9.290952682495117,9.377077102661133,-1.4126083850860596,52647.0,54252.0,54088.0,47366.0,0.6,0.0,0.5,-0.43299195170402527,0.6796664595603943,0.3875996470451355,0.04712009057402611,-0.014579704031348228,0.2239079624414444,-0.6084802150726318,1.1095572710037231,3.5613162517547607,1.4935649633407593,-4.400057792663574,0.053445618599653244,53214.0,51507.0,51290.0,46176.0,-0.3000025448675481,0.51961377298239,0.5,-0.40302929282188416,-0.5774842500686646,0.40628233551979065,0.00587963592261076,-0.030726764351129532,0.19045870006084442,-0.6941452622413635,0.17976318299770355,0.5513017177581787,-2.998947858810425,-10.243483543395996,2.4964070320129395,52651.0,51734.0,53034.0,51320.0,-0.29999491024331576,-0.5196181808098181,0.5
2.33,TAKEOFF,incipient,1.0,0.5838521718978882,0.005897597875446081,0.3773624897003174,0.06279599666595459,0.00220794091001153,0.21763572096824646,0.00624738447368145,0.6421030759811401,2.0230824947357178,6.5449748039245605,7.047547817230225,-0.7814798951148987,52880.0,53261.0,53853.0,48626.0,0.6,0.0,0.5,-0.43299195170402527,0.6796664595603943,0.3875996470451355,0.04712009057402611,-0.014579704031348228,0.2239079624414444,-0.5374751091003418,1.1397323608398438,3.5400421619415283,6.816989898681641,-3.397261381149292,0.12696795165538788,53214.0,51507.0,51290.0,46176.0,-0.3000025448675481,0.51961377298239,0.5,-0.40302929282188416,-0.5774842500686646,0.40628233551979065,0.005080868024379015,-0.02838427573442459,0.18458275496959686,-0.7539485096931458,0.39281436800956726,0.6024330258369446,-3.947774887084961,-6.384455680847168,3.7767326831817627,53684.0,51242.0,52232.0,51666.0,-0.29999491024331576,-0.5196181808098181,0.5
2.35,TAKEOFF,incipient,1.0,0.5876155495643616,0.007214820943772793,0.4011973440647125,0.06279599666595459,0.00220794091001153,0.21763572096824646,0.00624738447368145,0.6421030759811401,2.0230824947357178,6.5449748039245605,7.047547817230225,-0.7814798951148987,52880.0,53261.0,53853.0,48626.0,0.6,0.0,0.5,-0.43299195170402527,0.6796664595603943,0.3875996470451355,0.04712009057402611,-0.014579704031348228,0.2239079624414444,-0.5374751091003418,1.1397323608398438,3.5400421619415283,6.816989898681641,-3.397261381149292,0.12696795165538788,53214.0,51507.0,51290.0,46176.0,-0.3000025448675481,0.51961377298239,0.5,-0.40302929282188416,-0.5774842500686646,0.40628233551979065,0.01590770296752453,-0.030514247715473175,0.1823701411485672,-0.7560667395591736,0.4119882881641388,0.6579825282096863,1.9176623821258545,-2.3461403846740723,2.1280908584594727,53684.0,51242.0,52232.0,51666.0,-0.29999491024331576,-0.5196181808098181,0.5
2.369,TAKEOFF,incipient,1.0,0.5876155495643616,0.007214820943772793,0.4011973440647125,0.060792431235313416,0.002014479599893093,0.2102285474538803,0.13950428366661072,0.5169323086738586,2.014309883117676,10.100295066833496,6.943819046020508,3.5919883251190186,52162.0,53695.0,56071.0,46024.0,-0.5841641205621392,0.13693896541109993,0.5,-0.43299195170402527,0.6796664595603943,0.3875996470451355,0.04712009057402611,-0.014579704031348228,0.2239079624414444,-0.5374751091003418,1.1397323608398438,3.5400421619415283,6.816989898681641,-3.397261381149292,0.12696795165538788,53214.0,51507.0,51290.0,46176.0,0.17508932959740686,-0.5738847677549306,0.5,-0.40302929282188416,-0.5774842500686646,0.40628233551979065,0.010175918228924274,-0.02449735812842846,0.16979564726352692,-0.7560667395591736,0.4119882881641388,0.6579825282096863,1.9176623821258545,-2.3461403846740723,2.1280908584594727,53310.0,51289.0,52463.0,51763.0,0.408230383174895,0.4397134910971897,0.5
2.387,TAKEOFF,incipient,1.0,0.5876155495643616,0.007214820943772793,0.4011973440647125,0.046697765588760376,0.02569790743291378,0.20695048570632935,0.053381044417619705,0.49738970398902893,2.166466236114502,0.40098631381988525,-0.17987367510795593,-1.0050386190414429,51598.0,52350.0,55134.0,49841.0,-0.5852884958865743,0.1320506591533399,0.5,-0.43299195170402527,0.6796664595603943,0.3875996470451355,0.05058497563004494,-0.012742693535983562,0.22017402946949005,-0.433634489774704,1.233309030532837,3.5473744869232178,4.701638698577881,-3.3973584175109863,-0.48054930567741394,53616.0,50939.0,50751.0,46891.0,0.17988079851648228,-0.57240099434319,0.5,-0.40302929282188416,-0.5774842500686646,0.40628233551979065,0.010175918228924274,-0.02449735812842846,0.16979564726352692,-0.7488221526145935,0.5019275546073914,0.7118237018585205,3.6715023517608643,-0.9252853393554688,2.5731453895568848,53695.0,51641.0,52020.0,52233.0,0.40454018164049993,0.4431108681112113,0.5
2.407,TAKEOFF,incipient,1.0,0.5876155495643616,0.007214820943772793,0.4011973440647125,0.04844119772315025,0.008605433627963066,0.19589608907699585,0.12756556272506714,0.4309879243373871,2.0219664573669434,-1.3348331451416016,0.7336248755455017,-1.882226586341858,51922.0,53036.0,54770.0,48995.0,-0.586371966441894,0.1271531241105241,0.5,-0.43299195170402527,0.6796664595603943,0.3875996470451355,0.04341370239853859,-0.007212388329207897,0.2091156393289566,-0.39705848693847656,1.3235068321228027,3.492342233657837,-6.784473896026611,-0.7689891457557678,-0.6965875029563904,52156.0,50493.0,52184.0,47589.0,0.18465969588736686,-0.5708772168468322,0.5,-0.40302929282188416,-0.5774842500686646,0.40628233551979065,0.006691752001643181,-0.020863279700279236,0.15701811015605927,-0.7057612538337708,0.5650089979171753,0.7844918966293335,4.4641242027282715,-2.796583652496338,1.5192261934280396,53410.0,52192.0,52518.0,52025.0,0.40082170751430757,0.446477276896949,0.5
2.427,TAKEOFF,incipient,1.0,0.5876155495643616,0.007214820943772793,0.4011973440647125,0.04426564276218414,0.008501481264829636,0.1911686360836029,0.056645091623067856,0.43428272008895874,1.9636763334274292,-1.1059800386428833,-4.00102424621582,-1.3469027280807495,52295.0,53081.0,54302.0,49080.0,-0.5874144565062737,0.12224670256264182,0.5,-0.43025559186935425,0.680950403213501,0.40865063667297363,0.039093464612960815,-0.006259784568101168,0.20210465788841248,-0.39705848693847656,1.3235068321228027,3.492342233657837,-6.784473896026611,-0.7689891457557678,-0.6965875029563904,52037.0,50049.0,52086.0,47827.0,0.18942568772144655,-0.5693135417599489,0.5,-0.4021395444869995,-0.5786464810371399,0.4215206503868103,0.007206888869404793,-0.018895955756306648,0.14844302833080292,-0.6428323984146118,0.5921142101287842,0.790047824382782,4.401369094848633,-2.521867275238037,0.8835409879684448,53502.0,52564.0,52590.0,51821.0,0.39707522067384265,0.44981248218209674,0.5
2.448,TAKEOFF,incipient,1.0,0.5878300070762634,0.010759641416370869,0.4227105379104614,0.03414097800850868,0.025660699233412743,0.18280288577079773,-0.007631225045770407,0.36222904920578003,1.9477688074111938,1.993945837020874,-0.647973358631134,-1.363956093788147,53871.0,53267.0,53947.0,47119.0,0.6,0.0,0.5,-0.43025559186935425,0.680950403213501,0.40865063667297363,0.006864333059638739,0.009250461123883724,0.19423967599868774,-0.8773500919342041,1.3840293884277344,3.482759475708008,-8.847456932067871,4.568528175354004,-1.6840299367904663,52556.0,50038.0,51714.0,48479.0,-0.3000025448675481,0.51961377298239,0.5,-0.4021395444869995,-0.5786464810371399,0.4215206503868103,0.0072624050080776215,-0.014807743951678276,0.13475154340267181,-0.4826027750968933,0.6493462324142456,0.7919955849647522,1.0026650428771973,-1.7697277069091797,0.3745250105857849,53483.0,52060.0,52834.0,52408.0,-0.29999491024331576,-0.5196181808098181,0.5
2.467,TAKEOFF,incipient,1.0,0.5878300070762634,0.010759641416370869,0.4227105379104614,0.0329388752579689,0.0256239902228117,0.17745481431484222,0.005023415666073561,0.3488564193248749,1.920737624168396,2.4314849376678467,1.2396883964538574,-1.935196876525879,51359.0,52951.0,55092.0,49352.0,0.6,0.0,0.5,-0.43025559186935425,0.680950403213501,0.40865063667297363,0.002179747214540839,0.012015609070658684,0.18769752979278564,-1.0083140134811401,1.2514948844909668,3.4399800300598145,-2.855250597000122,6.944454193115234,-1.2886565923690796,51880.0,50167.0,52167.0,48095.0,-0.3000025448675481,0.51961377298239,0.5,-0.4021395444869995,-0.5786464810371399,0.4215206503868103,0.004895304329693317,-0.013160381466150284,0.13170059025287628,-0.36524665355682373,0.4799022376537323,0.8142416477203369,-0.5605357885360718,-1.5256259441375732,-0.5904748439788818,53783.0,51486.0,52464.0,52491.0,-0.29999491024331576,-0.5196181808098181,0.5
2.49,TAKEOFF,incipient,1.0,0.5878300070762634,0.010759641416370869,0.4227105379104614,0.031857915222644806,0.025546962395310402,0.16665424406528473,0.005023415666073561,0.3488564193248749,1.920737624168396,2.4314849376678467,1.2396883964538574,-1.935196876525879,52607.0,52052.0,54027.0,50378.0,-0.590295329526678,0.10747755086058991,0.5,-0.43025559186935425,0.680950403213501,0.40865063667297363,-0.026912827044725418,0.03359225392341614,0.18806198239326477,-1.1549841165542603,1.2764027118682861,3.4581594467163086,8.56373405456543,7.083719730377197,-2.043043851852417,51880.0,50167.0,52167.0,48095.0,0.2036429037854977,-0.564384237676612,0.5,-0.4021395444869995,-0.5786464810371399,0.4215206503868103,0.03858060762286186,-0.025436313822865486,0.1369563639163971,-0.35726669430732727,0.48385724425315857,0.8194726705551147,-0.2614312767982483,-3.487475872039795,-0.1975255012512207,53783.0,51486.0,52464.0,52491.0,0.38567031189850975,0.45962855711988365,0.5
