timestamp_sec,flight_state,fault_type,fault_motor_health,cf1_X,cf1_Y,cf1_Z,cf1_VelX,cf1_VelY,cf1_VelZ,cf1_Roll,cf1_Pitch,cf1_Yaw,cf1_GyroX,cf1_GyroY,cf1_GyroZ,cf1_Motor1,cf1_Motor2,cf1_Motor3,cf1_Motor4,cf1_targ_x,cf1_targ_y,cf1_targ_z,cf2_X,cf2_Y,cf2_Z,cf2_VelX,cf2_VelY,cf2_VelZ,cf2_Roll,cf2_Pitch,cf2_Yaw,cf2_GyroX,cf2_GyroY,cf2_GyroZ,cf2_Motor1,cf2_Motor2,cf2_Motor3,cf2_Motor4,cf2_targ_x,cf2_targ_y,cf2_targ_z,cf3_X,cf3_Y,cf3_Z,cf3_VelX,cf3_VelY,cf3_VelZ,cf3_Roll,cf3_Pitch,cf3_Yaw,cf3_GyroX,cf3_GyroY,cf3_GyroZ,cf3_Motor1,cf3_Motor2,cf3_Motor3,cf3_Motor4,cf3_targ_x,cf3_targ_y,cf3_targ_z
0.01,TAKEOFF,intermittent,1.0,0.602784276008606,0.011555109173059464,-0.0003841277211904526,-0.008101297542452812,0.01354808360338211,-0.0025925603695213795,0.09739615023136139,0.3069245219230652,3.628124475479126,0.008299615234136581,-0.04809105396270752,-0.10605794936418533,0.0,0.0,0.0,0.0,-0.4216966010940752,0.42681609227594075,0.5,-0.4177604019641876,0.6035619378089905,0.004732010420411825,-0.03474210947751999,0.03496337682008743,-0.006728345528244972,-0.08938328921794891,-1.1462219953536987,6.898983478546143,0.14576804637908936,-0.046655409038066864,0.06643543392419815,0.0,0.0,0.0,0.0,-0.15717228727362312,-0.5790482467922493,0.5,-0.3765060305595398,-0.5727629065513611,0.0033514804672449827,0.038865674287080765,-0.032771382480859756,0.012786831706762314,0.7504401803016663,-0.2970719039440155,1.8221920728683472,-0.11940239369869232,0.12861210107803345,-0.07127166539430618,0.0,0.0,0.0,0.0,0.579626887179077,0.15502474531213895,0.5
0.029,TAKEOFF,intermittent,1.0,0.6006456017494202,0.017128173261880875,-0.00014465927961282432,0.00972212664783001,0.01731519214808941,-0.0018355435458943248,0.07276538014411926,0.27981576323509216,3.0702366828918457,-0.07693290710449219,0.060641419142484665,0.058324310928583145,0.0,0.0,0.0,0.0,-0.4322673356364845,0.4161068979742283,0.5,-0.415732204914093,0.6053235530853271,0.003955923020839691,-0.002535501029342413,-0.005791144911199808,0.0004183947457931936,0.1851380318403244,-1.3202015161514282,6.955903053283691,0.03547737002372742,-0.06724864989519119,0.21171662211418152,0.0,0.0,0.0,0.0,-0.1426019531707756,-0.5828075865599897,0.5,-0.3765060305595398,-0.5727629065513611,0.0033514804672449827,0.04172898828983307,-0.034208253026008606,0.011322006583213806,0.7666947245597839,-0.3522692918777466,1.8312551975250244,-0.08704950660467148,0.400299996137619,-0.029838701710104942,0.0,0.0,0.0,0.0,0.5755570188955519,0.16951140964567948,0.5
0.047,TAKEOFF,intermittent,1.0,0.6006456017494202,0.017128173261880875,-0.00014465927961282432,-0.013764532282948494,0.024460259824991226,0.0029092519544065,0.024255814030766487,0.4467172622680664,3.2540218830108643,-0.09852208942174911,0.10056997090578079,0.07589522749185562,0.0,0.0,0.0,0.0,0.6,0.0,0.5,-0.4122299551963806,0.6007398366928101,0.003841124940663576,-0.0011841226369142532,-0.0010864455252885818,0.000694239919539541,0.21546758711338043,-1.386597752571106,7.0012688636779785,-0.009511682204902172,0.08077090978622437,0.14751631021499634,0.0,0.0,0.0,0.0,-0.3000025448675481,0.51961377298239,0.5,-0.3714851438999176,-0.576659083366394,0.005881114862859249,0.02883981168270111,-0.02410624362528324,0.003617728827521205,0.6504275798797607,-0.22377049922943115,1.845484733581543,0.052909430116415024,-0.0677720308303833,0.09473318606615067,0.0,0.0,0.0,0.0,-0.29999491024331576,-0.5196181808098181,0.5
0.069,TAKEOFF,intermittent,1.0,0.6006456017494202,0.017128173261880875,-0.00014465927961282432,0.0027379165403544903,0.004828002769500017,-0.0013697831891477108,0.20952410995960236,0.31413763761520386,3.182501792907715,0.13978531956672668,0.023157168179750443,-0.10680501163005829,0.0,0.0,0.0,0.0,0.6,0.0,0.5,-0.4150509238243103,0.6039784550666809,0.002812742255628109,-0.0005187614005990326,-0.004745143931359053,-0.0005245051579549909,0.24294380843639374,-1.3892260789871216,7.036656379699707,0.23575209081172943,0.07091429084539413,-0.12435983866453171,0.0,0.0,0.0,0.0,-0.3000025448675481,0.51961377298239,0.5,-0.3714851438999176,-0.576659083366394,0.005881114862859249,0.02883981168270111,-0.02410624362528324,0.003617728827521205,0.6846442222595215,-0.26664429903030396,1.8474282026290894,-0.1211719661951065,-0.030017009004950523,0.19494947791099548,0.0,0.0,0.0,0.0,-0.29999491024331576,-0.5196181808098181,0.5
0.087,TAKEOFF,intermittent,1.0,0.6006456017494202,0.017128173261880875,-0.00014465927961282432,0.0027534496039152145,0.004927514120936394,-0.0014457908691838384,0.2283579707145691,0.27376195788383484,3.1185710430145264,0.05246322602033615,-0.08337266743183136,-0.15924189984798431,0.0,0.0,0.0,0.0,0.6,0.0,0.5,-0.4150509238243103,0.6039784550666809,0.002812742255628109,0.015125881880521774,-0.016067979857325554,-0.007515658158808947,0.24272218346595764,-1.3891741037368774,7.03574800491333,-0.22795067727565765,-0.2511596381664276,0.003957563079893589,42416.0,34471.0,39815.0,35490.0,-0.3000025448675481,0.51961377298239,0.5,-0.3714851438999176,-0.576659083366394,0.005881114862859249,0.03069302625954151,-0.024032626301050186,3.144653601339087e-05,0.6500316262245178,-0.22588512301445007,1.8507437705993652,0.10463190078735352,0.13045990467071533,0.31747153401374817,0.0,0.0,0.0,0.0,-0.29999491024331576,-0.5196181808098181,0.5
0.106,TAKEOFF,intermittent,1.0,0.6006456017494202,0.017128173261880875,-0.00014465927961282432,-0.002055568853393197,-3.687445996547467e-06,-0.002638556296005845,0.2587372958660126,0.31275808811187744,3.118497610092163,-0.1570597141981125,-1.2670406103134155,4.568726062774658,37646.0,36636.0,39540.0,36721.0,0.6,0.0,0.5,-0.4150509238243103,0.6039784550666809,0.002812742255628109,0.03326122462749481,-0.021561602130532265,-0.01156666874885559,0.33846843242645264,-1.4777090549468994,6.988818645477295,-0.23741514980793,0.19110576808452606,2.866189479827881,43239.0,34848.0,40576.0,36786.0,-0.3000025448675481,0.51961377298239,0.5,-0.3714851438999176,-0.576659083366394,0.005881114862859249,0.03377188742160797,-0.03087172843515873,0.007637150585651398,0.7127208709716797,-0.31547442078590393,1.921893835067749,0.9312719106674194,0.3190573751926422,-2.7193284034729004,41750.0,38620.0,37869.0,38018.0,-0.29999491024331576,-0.5196181808098181,0.5
0.127,TAKEOFF,intermittent,1.0,0.6036560535430908,0.011313103139400482,-0.00069566530873999,-0.007038231007754803,0.001966992160305381,-0.0020676220301538706,0.21090170741081238,0.36652421951293945,3.1924760341644287,1.3694785833358765,0.7825333476066589,-2.015773296356201,41447.0,38858.0,38484.0,35733.0,0.6,0.0,0.5,-0.40938907861709595,0.5985202193260193,0.0018100581364706159,0.010270020924508572,-0.004759475123137236,0.0010054261656478047,0.21982267498970032,-1.3260194063186646,6.964638710021973,-1.5530532598495483,0.04283976927399635,-2.6417274475097656,44456.0,32451.0,42019.0,40080.0,-0.3000025448675481,0.51961377298239,0.5,-0.3741777539253235,-0.5738075375556946,0.005000370554625988,0.016001921147108078,-0.01748921163380146,-0.0038865376263856888,0.5804579854011536,-0.13117405772209167,1.8688709735870361,-0.0023680711165070534,0.6300527453422546,-0.5313286185264587,43233.0,39963.0,40715.0,40950.0,-0.29999491024331576,-0.5196181808098181,0.5
0.147,TAKEOFF,intermittent,1.0,0.6036560535430908,0.011313103139400482,-0.00069566530873999,-0.007038231007754803,0.001966992160305381,-0.0020676220301538706,0.2050820142030716,0.37423962354660034,3.1887409687042236,1.8138971328735352,-0.16303016245365143,-2.6518499851226807,40544.0,38325.0,39688.0,37963.0,0.6,0.0,0.5,-0.40938907861709595,0.5985202193260193,0.0018100581364706159,0.014744856394827366,-0.0041624098084867,0.0014629615470767021,0.11290691792964935,-1.2624802589416504,7.0278754234313965,1.1415526866912842,-2.2312004566192627,1.0086957216262817,45234.0,36775.0,41545.0,37860.0,-0.3000025448675481,0.51961377298239,0.5,-0.3741777539253235,-0.5738075375556946,0.005000370554625988,0.011713415384292603,-0.015457900241017342,-0.007158082909882069,0.5497012734413147,-0.09635984152555466,1.8454439640045166,0.41964226961135864,0.17222626507282257,-0.45010310411453247,43995.0,41634.0,41608.0,41021.0,-0.29999491024331576,-0.5196181808098181,0.5
0.167,TAKEOFF,intermittent,1.0,0.6036560535430908,0.011313103139400482,-0.00069566530873999,0.012851802632212639,-0.005853170529007912,-0.004970603156834841,0.30994755029678345,0.15521325170993805,3.087711811065674,0.7461159825325012,1.9029375314712524,-8.298213958740234,39158.0,39515.0,39064.0,41318.0,0.6,0.0,0.5,-0.40938907861709595,0.5985202193260193,0.0018100581364706159,0.009348779916763306,0.008046737872064114,0.0015257529448717833,0.11224611103534698,-1.2575724124908447,7.0279388427734375,3.2845325469970703,-1.767845869064331,-4.081439971923828,44247.0,38988.0,42565.0,37713.0,-0.3000025448675481,0.51961377298239,0.5,-0.3741777539253235,-0.5738075375556946,0.005000370554625988,0.011597087606787682,-0.021180251613259315,-0.008167780004441738,0.5542530417442322,-0.09639758616685867,1.840303897857666,0.813370943069458,-0.4266550838947296,0.09541512280702591,43894.0,42404.0,43012.0,41739.0,-0.29999491024331576,-0.5196181808098181,0.5
0.187,TAKEOFF,intermittent,1.0,0.6036560535430908,0.011313103139400482,-0.00069566530873999,0.01894407905638218,-0.008396235294640064,-0.01370992697775364,0.2426927238702774,0.19153492152690887,2.611140251159668,-5.250491142272949,-6.702404975891113,-32.26839065551758,40219.0,42672.0,35844.0,41434.0,0.6,0.0,0.5,-0.40938907861709595,0.5985202193260193,0.0018100581364706159,0.013680328615009785,0.008171672001481056,0.001256717718206346,0.11224611103534698,-1.2575724124908447,7.0279388427734375,3.2845325469970703,-1.767845869064331,-4.081439971923828,44954.0,31936.0,41548.0,44750.0,-0.3000025448675481,0.51961377298239,0.5,-0.3741777539253235,-0.5738075375556946,0.005000370554625988,0.007991698570549488,-0.01863096095621586,-0.009338097646832466,0.5408397912979126,-0.04068339988589287,1.8390368223190308,0.8575519323348999,-0.8651820421218872,-6.313464164733887,45061.0,43251.0,42589.0,42320.0,-0.29999491024331576,-0.5196181808098181,0.5
0.207,TAKEOFF,intermittent,1.0,0.6087003350257874,0.012833687476813793,-0.0017325495136901736,0.019454870373010635,-0.009618494659662247,-0.014942309819161892,0.21014191210269928,0.24104298651218414,1.7310848236083984,4.153122901916504,4.358558654785156,-47.757347106933594,39849.0,43461.0,35629.0,42680.0,0.6,0.0,0.5,-0.411133348941803,0.6011521816253662,0.0037479151505976915,0.021067539229989052,0.001532061374746263,0.0039791539311409,0.21992215514183044,-1.2548307180404663,6.608952522277832,-7.66215181350708,5.261516571044922,-16.066720962524414,43944.0,37130.0,42721.0,42227.0,-0.3000025448675481,0.51961377298239,0.5,-0.3755152225494385,-0.5740868449211121,0.0036745676770806313,0.008197849616408348,-0.020483292639255524,-0.008884981274604797,0.5643139481544495,-0.034792929887771606,1.7526934146881104,-0.49050503969192505,-2.4576492309570312,-7.900865077972412,42852.0,44120.0,44428.0,43758.0,-0.29999491024331576,-0.5196181808098181,0.5
0.227,TAKEOFF,intermittent,1.0,0.6087003350257874,0.012833687476813793,-0.0017325495136901736,0.019454870373010635,-0.009618494659662247,-0.014942309819161892,0.39119553565979004,0.07558490335941315,0.7580146193504333,9.071880340576172,6.2539143562316895,-47.032432556152344,37996.0,44252.0,37417.0,43202.0,0.6,0.0,0.5,-0.411133348941803,0.6011521816253662,0.0037479151505976915,0.03115105628967285,-0.003040059469640255,0.001031586667522788,0.2620149850845337,-1.2866724729537964,6.233888626098633,-5.668398380279541,7.751357078552246,-7.6651997566223145,46322.0,35358.0,41302.0,43712.0,-0.3000025448675481,0.51961377298239,0.5,-0.3755152225494385,-0.5740868449211121,0.0036745676770806313,0.008385729975998402,-0.022378752008080482,-0.009469294920563698,0.5565583109855652,-0.02792714163661003,1.615217685699463,4.9326934814453125,2.604628562927246,-6.499234676361084,49201.0,45450.0,38645.0,42185.0,-0.29999491024331576,-0.5196181808098181,0.5
0.247,TAKEOFF,intermittent,1.0,0.6087003350257874,0.012833687476813793,-0.0017325495136901736,-0.007432389538735151,0.031449299305677414,-0.013156713917851448,0.1535910665988922,0.21524329483509064,-0.09538426995277405,-2.282466411590576,-1.8058935403823853,-49.32780456542969,38476.0,43989.0,36605.0,44506.0,0.6,0.0,0.5,-0.411133348941803,0.6011521816253662,0.0037479151505976915,0.03149158135056496,-0.0054099066182971,0.006844700779765844,0.26172465085983276,-1.2902696132659912,6.016658782958984,0.053831785917282104,1.5073775053024292,-1.726192831993103,46841.0,37321.0,42066.0,41556.0,-0.3000025448675481,0.51961377298239,0.5,-0.3755152225494385,-0.5740868449211121,0.0036745676770806313,0.00851141382008791,-0.02429148368537426,-0.008861568756401539,0.5565583109855652,-0.02792714163661003,1.615217685699463,4.9326934814453125,2.604628562927246,-6.499234676361084,45200.0,45744.0,42961.0,44317.0,-0.29999491024331576,-0.5196181808098181,0.5
0.267,TAKEOFF,intermittent,1.0,0.6087003350257874,0.012833687476813793,-0.0017325495136901736,-0.008583620190620422,0.03148208558559418,-0.01738126017153263,-0.015019340440630913,0.35390913486480713,-0.9970662593841553,4.208768367767334,2.140108108520508,-51.05946350097656,35568.0,42433.0,37189.0,47471.0,0.6,0.0,0.5,-0.411133348941803,0.6011521816253662,0.0037479151505976915,0.036037374287843704,-0.00586323207244277,0.009351340122520924,0.262845903635025,-1.2972383499145508,5.952357292175293,4.457790374755859,-3.8719773292541504,-10.528303146362305,48017.0,40216.0,39363.0,40979.0,-0.3000025448675481,0.51961377298239,0.5,-0.3755152225494385,-0.5740868449211121,0.0036745676770806313,0.008750531822443008,-0.026269901543855667,-0.01038000825792551,0.5893282890319824,-0.06564958393573761,1.3326243162155151,2.3717639446258545,3.115680456161499,-15.66283130645752,48831.0,44174.0,42572.0,43694.0,-0.29999491024331576,-0.5196181808098181,0.5
0.286,TAKEOFF,intermittent,1.0,0.6087003350257874,0.012833687476813793,-0.0017325495136901736,0.003011266468092799,0.03317508101463318,-0.015781834721565247,0.05599191412329674,0.25897571444511414,-2.1176438331604004,3.9329159259796143,-5.428853988647461,-48.85350799560547,39263.0,42501.0,40133.0,44638.0,0.6,0.0,0.5,-0.4124394357204437,0.6030744314193726,0.004500828217715025,0.040593381971120834,-0.0063391998410224915,0.01374120358377695,0.11274099349975586,-1.027112603187561,5.778055191040039,7.649781703948975,6.801025867462158,-15.80920696258545,49778.0,40579.0,36345.0,41786.0,-0.3000025448675481,0.51961377298239,0.5,-0.3755152225494385,-0.5740868449211121,0.0036745676770806313,0.018063973635435104,-0.027002815157175064,-0.005168906878679991,0.5206331014633179,-0.09746699780225754,1.2946300506591797,3.1903676986694336,4.3053436279296875,5.830119609832764,44870.0,48404.0,42170.0,44728.0,-0.29999491024331576,-0.5196181808098181,0.5
0.307,TAKEOFF,intermittent,1.0,0.6090505123138428,0.020094651728868484,-0.00033492050715722144,0.003011266468092799,0.03317508101463318,-0.015781834721565247,-0.023098716512322426,0.26757746934890747,-2.682011127471924,-3.2791526317596436,-1.8458614349365234,-14.861614227294922,38366.0,43872.0,42043.0,42825.0,0.6,0.0,0.5,-0.4124394357204437,0.6030744314193726,0.004500828217715025,0.012776661664247513,0.014798013493418694,0.01751863770186901,0.04994024336338043,-0.9748877882957458,5.474628925323486,0.7004877924919128,-2.608156681060791,-12.327916145324707,42590.0,40811.0,46206.0,41761.0,-0.3000025448675481,0.51961377298239,0.5,-0.37475526332855225,-0.5742751359939575,0.0035654616076499224,0.013077766634523869,-0.023446787148714066,-0.006390065886080265,0.5335459113121033,-0.0722113624215126,1.2463196516036987,-1.0576459169387817,-3.6781070232391357,-30.600452423095703,43488.0,48798.0,42912.0,46234.0,-0.29999491024331576,-0.5196181808098181,0.5
0.327,TAKEOFF,intermittent,1.0,0.6090505123138428,0.020094651728868484,-0.00033492050715722144,0.00505255488678813,0.035380419343709946,-0.010895411483943462,-0.15010493993759155,0.3537818193435669,-2.886240005493164,-7.6115403175354,-5.872111797332764,-0.5716132521629333,42310.0,43364.0,41421.0,42029.0,0.6,0.0,0.5,-0.4124394357204437,0.6030744314193726,0.004500828217715025,0.010347041301429272,0.02161988988518715,0.018736107274889946,0.04994024336338043,-0.9748877882957458,5.474628925323486,0.7004877924919128,-2.608156681060791,-12.327916145324707,42718.0,43657.0,46145.0,39636.0,-0.3000025448675481,0.51961377298239,0.5,-0.37475526332855225,-0.5742751359939575,0.0035654616076499224,0.013263928703963757,-0.025123141705989838,-0.007680609822273254,0.4961520731449127,-0.06366663426160812,0.2864634394645691,-1.8164175748825073,-1.2640258073806763,-33.83280563354492,45650.0,48434.0,42126.0,46495.0,-0.29999491024331576,-0.5196181808098181,0.5
0.346,TAKEOFF,intermittent,1.0,0.6090505123138428,0.020094651728868484,-0.00033492050715722144,-0.0016819266602396965,0.04069194942712784,-0.022162972018122673,-0.1837213933467865,0.4063841998577118,-2.696225881576538,3.4156315326690674,4.599914073944092,15.58592414855957,42929.0,41058.0,42838.0,43538.0,0.6,0.0,0.5,-0.4124394357204437,0.6030744314193726,0.004500828217715025,0.013586797751486301,0.021735673770308495,0.01701126992702484,0.06333833187818527,-0.8958761692047119,4.927174091339111,0.9191094636917114,0.016347287222743034,-17.116167068481445,46669.0,41951.0,41516.0,43022.0,-0.3000025448675481,0.51961377298239,0.5,-0.37475526332855225,-0.5742751359939575,0.0035654616076499224,0.013445824384689331,-0.026740258559584618,-0.00888764951378107,0.47592252492904663,-0.06268776953220367,-0.2694922089576721,2.354548692703247,1.8985761404037476,-26.488391876220703,45908.0,47796.0,43743.0,46794.0,-0.29999491024331576,-0.5196181808098181,0.5
0.366,TAKEOFF,intermittent,1.0,0.6090505123138428,0.020094651728868484,-0.00033492050715722144,-0.006576783489435911,0.04495483636856079,-0.022412000223994255,-0.07224351912736893,0.2914438545703888,-2.314194679260254,7.516087055206299,7.1871538162231445,16.298503875732422,41814.0,41392.0,44015.0,43553.0,0.6,0.0,0.5,-0.4124394357204437,0.6030744314193726,0.004500828217715025,0.01347645279020071,0.024476289749145508,0.01884109526872635,0.07534747570753098,-0.8744431734085083,4.592580318450928,-0.414405882358551,0.41628265380859375,-15.80030632019043,46146.0,41377.0,43060.0,43928.0,-0.3000025448675481,0.51961377298239,0.5,-0.37475526332855225,-0.5742751359939575,0.0035654616076499224,0.014039469882845879,-0.029774382710456848,-0.011679565533995628,0.4730014204978943,-0.06323549896478653,-0.73984694480896,-2.3031795024871826,-4.416387557983398,-13.668848037719727,44737.0,47734.0,46488.0,46691.0,-0.29999491024331576,-0.5196181808098181,0.5
0.387,TAKEOFF,intermittent,1.0,0.6062731146812439,0.027160916477441788,-0.0030604349449276924,-0.008511016145348549,0.04651417210698128,-0.026365051046013832,0.04481518641114235,0.1473265141248703,-1.9025732278823853,-7.736876487731934,-7.240333080291748,18.515336990356445,41346.0,42725.0,45183.0,43500.0,0.6,0.0,0.5,-0.4124394357204437,0.6030744314193726,0.004500828217715025,0.016542626544833183,0.024478375911712646,0.021166430786252022,0.08193231374025345,-0.865588366985321,4.280525207519531,3.5793282985687256,1.6224262714385986,-16.19248390197754,46970.0,41261.0,42107.0,44744.0,-0.3000025448675481,0.51961377298239,0.5,-0.37475526332855225,-0.5742751359939575,0.0035654616076499224,0.03945808485150337,-0.04379776865243912,0.006032987032085657,0.6093758940696716,-0.2633342444896698,-0.9018976092338562,-5.999940395355225,-5.748033046722412,-6.804114818572998,47281.0,46379.0,45267.0,46585.0,-0.29999491024331576,-0.5196181808098181,0.5
0.407,TAKEOFF,intermittent,1.0,0.6062731146812439,0.027160916477441788,-0.0030604349449276924,-0.009495344944298267,0.046737976372241974,-0.024870963767170906,-0.08551052212715149,0.3221127688884735,-1.5148451328277588,-3.1360244750976562,-8.81173324584961,13.427023887634277,42378.0,42681.0,45729.0,42430.0,0.6,0.0,0.5,-0.41332942247390747,0.6068423986434937,0.006462671793997288,0.01953231543302536,0.024353444576263428,0.02284036949276924,0.08193231374025345,-0.865588366985321,4.280525207519531,3.5793282985687256,1.6224262714385986,-16.19248390197754,46269.0,42532.0,42638.0,44747.0,-0.3000025448675481,0.51961377298239,0.5,-0.3676444888114929,-0.5794432163238525,0.006167157553136349,0.02901139296591282,-0.03726453706622124,0.004011204466223717,0.49252790212631226,-0.18742865324020386,-0.9928116202354431,0.6787899732589722,0.6755690574645996,0.5800942182540894,48861.0,45783.0,45621.0,46390.0,-0.29999491024331576,-0.5196181808098181,0.5
0.427,TAKEOFF,intermittent,1.0,0.6062731146812439,0.027160916477441788,-0.0030604349449276924,-0.01084202341735363,0.04719498008489609,-0.025996552780270576,-0.13366208970546722,0.41726601123809814,-1.1465171575546265,-5.366734027862549,-3.795430898666382,24.026453018188477,43959.0,41408.0,45267.0,44498.0,0.6,0.0,0.5,-0.41332942247390747,0.6068423986434937,0.006462671793997288,0.04763665422797203,-0.005502845160663128,0.007508309092372656,0.3405565321445465,-1.0657334327697754,3.4608943462371826,-1.3358283042907715,-2.882901668548584,-19.118610382080078,46418.0,43070.0,43236.0,45716.0,-0.3000025448675481,0.51961377298239,0.5,-0.3676444888114929,-0.5794432163238525,0.006167157553136349,0.03371899574995041,-0.04047155752778053,0.012358896434307098,0.4891827702522278,-0.18016517162322998,-0.8855589628219604,-1.9764207601547241,-2.2103490829467773,6.918301582336426,51156.0,46510.0,43879.0,45086.0,-0.29999491024331576,-0.5196181808098181,0.5
0.447,TAKEOFF,intermittent,1.0,0.6062731146812439,0.027160916477441788,-0.0030604349449276924,-0.009315134026110172,0.049012210220098495,-0.020293036475777626,-0.19149813055992126,0.5114012956619263,-0.7094130516052246,1.599251627922058,4.476883888244629,17.31768798828125,43438.0,41893.0,46766.0,43998.0,0.6,0.0,0.5,-0.41332942247390747,0.6068423986434937,0.006462671793997288,0.04945700988173485,-0.007470565848052502,0.015556875616312027,0.40449798107147217,-0.98765629529953,3.044907808303833,-2.9175643920898438,-1.3180793523788452,-21.598695755004883,45752.0,42822.0,43996.0,46629.0,-0.3000025448675481,0.51961377298239,0.5,-0.3676444888114929,-0.5794432163238525,0.006167157553136349,0.03670801222324371,-0.041859351098537445,0.021999340504407883,0.5177342891693115,-0.2589161694049835,-0.6729133725166321,9.04757022857666,9.148048400878906,14.486822128295898,48296.0,46548.0,47642.0,45220.0,-0.29999491024331576,-0.5196181808098181,0.5
0.467,TAKEOFF,intermittent,1.0,0.6062731146812439,0.027160916477441788,-0.0030604349449276924,-0.010897560976445675,0.04973216354846954,-0.014806650578975677,-0.2173343002796173,0.44779160618782043,-0.22828470170497894,4.226439952850342,-2.458211660385132,20.088790893554688,46933.0,43017.0,43502.0,43510.0,0.6,0.0,0.5,-0.41332942247390747,0.6068423986434937,0.006462671793997288,0.02840278670191765,0.010089765302836895,0.020850373432040215,0.27651548385620117,-0.601770281791687,2.6502504348754883,-15.012697219848633,-12.56023120880127,-25.71204376220703,44741.0,41326.0,45401.0,48067.0,-0.3000025448675481,0.51961377298239,0.5,-0.3676444888114929,-0.5794432163238525,0.006167157553136349,0.037413015961647034,-0.04352741315960884,0.025032341480255127,0.3517167568206787,-0.01095404103398323,-0.011158277280628681,-0.918725848197937,10.180225372314453,15.146031379699707,50706.0,44421.0,45788.0,47346.0,-0.29999491024331576,-0.5196181808098181,0.5
0.488,TAKEOFF,intermittent,1.0,0.6062731146812439,0.027160916477441788,-0.0030604349449276924,-0.010897560976445675,0.04973216354846954,-0.014806650578975677,0.04699835553765297,0.3442763090133667,0.15223386883735657,18.717594146728516,21.24951171875,22.74388313293457,40749.0,46756.0,49242.0,39842.0,-0.5038176144837256,0.3258340242146728,0.5,-0.41332942247390747,0.6068423986434937,0.006462671793997288,0.03025047481060028,0.00940608698874712,0.0217890627682209,0.12273945659399033,-0.32777634263038635,2.1672561168670654,8.231546401977539,-6.646799564361572,-19.7943115234375,45077.0,47655.0,39875.0,47697.0,-0.028601760825087804,-0.5993178950087378,0.5,-0.3676444888114929,-0.5794432163238525,0.006167157553136349,0.01979527436196804,-0.026021860539913177,0.00036931716022081673,0.3383066654205322,-0.05770459771156311,0.32192739844322205,2.6201703548431396,2.821542263031006,7.995010852813721,52510.0,46111.0,44872.0,47097.0,0.5325573137525725,0.2763742165409863,0.5
0.507,TAKEOFF,intermittent,1.0,0.6021224856376648,0.028569845482707024,-0.001633655047044158,-0.02609390765428543,0.033302679657936096,-0.002889883005991578,0.4293884038925171,0.38751113414764404,0.5966448187828064,9.983107566833496,-24.799083709716797,16.87509536743164,45740.0,46210.0,45629.0,40190.0,0.6,0.0,0.5,-0.41061851382255554,0.6061715483665466,0.005191437434405088,0.032332923263311386,0.009137636981904507,0.01835971511900425,0.12273945659399033,-0.32777634263038635,2.1672561168670654,8.231546401977539,-6.646799564361572,-19.7943115234375,44599.0,46502.0,42087.0,48607.0,-0.3000025448675481,0.51961377298239,0.5,-0.3676444888114929,-0.5794432163238525,0.006167157553136349,0.027316555380821228,-0.03179311752319336,0.00650286627933383,0.3383066654205322,-0.05770459771156311,0.32192739844322205,2.6201703548431396,2.821542263031006,7.995010852813721,48499.0,45421.0,48079.0,50007.0,-0.29999491024331576,-0.5196181808098181,0.5
0.527,TAKEOFF,intermittent,1.0,0.6021224856376648,0.028569845482707024,-0.001633655047044158,-0.02599169686436653,0.03249351680278778,0.012173407711088657,0.5590682625770569,0.617906928062439,0.9984619617462158,22.381671905517578,-12.136577606201172,15.246162414550781,46676.0,44956.0,44521.0,42353.0,0.6,0.0,0.5,-0.41061851382255554,0.6061715483665466,0.005191437434405088,0.03274547681212425,0.008761650882661343,0.01789199933409691,0.21350067853927612,-0.03271321952342987,1.3774856328964233,12.984396934509277,-14.9583740234375,-17.621864318847656,45770.0,48714.0,41009.0,47355.0,-0.3000025448675481,0.51961377298239,0.5,-0.36477234959602356,-0.5803645849227905,0.006050704978406429,0.02769475243985653,-0.032971955835819244,0.005945872515439987,0.3543946146965027,-0.0817236602306366,0.39331817626953125,-11.074056625366211,-1.984001636505127,0.537032961845398,49179.0,47507.0,47665.0,49119.0,-0.29999491024331576,-0.5196181808098181,0.5
0.547,TAKEOFF,intermittent,1.0,0.6021224856376648,0.028569845482707024,-0.001633655047044158,-0.026610510423779488,0.027682563289999962,0.027179839089512825,1.8679522275924683,0.6786566972732544,1.5074748992919922,37.029422760009766,-0.14184951782226562,4.778802394866943,46565.0,45250.0,44320.0,42504.0,0.6,0.0,0.5,-0.41061851382255554,0.6061715483665466,0.005191437434405088,0.03306547552347183,0.007986054755747318,0.024871189147233963,0.3757084310054779,0.22684670984745026,0.9957608580589294,-8.26239013671875,-17.724708557128906,-24.15069580078125,41592.0,47812.0,44581.0,49523.0,-0.3000025448675481,0.51961377298239,0.5,-0.36477234959602356,-0.5803645849227905,0.006050704978406429,0.025885900482535362,-0.0279217716306448,0.01377100683748722,0.3619295060634613,-0.10470026731491089,0.3650059998035431,-1.7666479349136353,-0.11020047217607498,-1.3427727222442627,51672.0,49341.0,46479.0,46267.0,-0.29999491024331576,-0.5196181808098181,0.5
0.567,TAKEOFF,intermittent,1.0,0.6021224856376648,0.028569845482707024,-0.001633655047044158,-0.026610510423779488,0.027682563289999962,0.027179839089512825,1.8679522275924683,0.6786566972732544,1.5074748992919922,37.029422760009766,-0.14184951782226562,4.778802394866943,44669.0,44978.0,46302.0,43607.0,0.6,0.0,0.5,-0.41061851382255554,0.6061715483665466,0.005191437434405088,0.03248915448784828,0.00677312770858407,0.028863592073321342,0.3757084310054779,0.22684670984745026,0.9957608580589294,-8.26239013671875,-17.724708557128906,-24.15069580078125,38397.0,49204.0,46757.0,48495.0,-0.3000025448675481,0.51961377298239,0.5,-0.36477234959602356,-0.5803645849227905,0.006050704978406429,0.003904445096850395,-0.006954188924282789,0.00602615624666214,0.0723767951130867,0.1339881420135498,0.3621562719345093,2.1248669624328613,-4.1243062019348145,4.187465667724609,49628.0,47846.0,49645.0,48082.0,-0.29999491024331576,-0.5196181808098181,0.5
0.588,TAKEOFF,intermittent,1.0,0.6021224856376648,0.028569845482707024,-0.001633655047044158,-0.023402268067002296,0.01597617194056511,0.023619752377271652,2.4972050189971924,0.7710552215576172,1.5559287071228027,11.044928550720215,-9.354741096496582,0.38037458062171936,45039.0,46706.0,46962.0,42646.0,0.6,0.0,0.5,-0.41061851382255554,0.6061715483665466,0.005191437434405088,0.030595790594816208,0.006057764403522015,0.03703156113624573,0.1269553005695343,0.6594461798667908,0.5451558232307434,-17.85489845275879,-38.544376373291016,-17.84648323059082,44803.0,51291.0,45855.0,43122.0,-0.3000025448675481,0.51961377298239,0.5,-0.36477234959602356,-0.5803645849227905,0.006050704978406429,0.0036055869422852993,-0.007046503014862537,0.008181938901543617,-0.025378836318850517,0.0479431189596653,0.529553234577179,-11.994070053100586,2.2365124225616455,11.503377914428711,49628.0,47846.0,49645.0,48082.0,-0.29999491024331576,-0.5196181808098181,0.5
0.607,TAKEOFF,intermittent,1.0,0.6033540964126587,0.03087787888944149,0.0023825764656066895,-0.023402268067002296,0.01597617194056511,0.023619752377271652,2.589014768600464,1.0820496082305908,1.6109013557434082,2.3912620544433594,-16.76090431213379,2.035571813583374,45039.0,46706.0,46962.0,42646.0,0.6,0.0,0.5,-0.4075254201889038,0.6068797707557678,0.008433004841208458,0.026249004527926445,0.005879162810742855,0.05144794285297394,0.10659278929233551,1.302294135093689,0.2565692365169525,24.916887283325195,-43.746337890625,-6.454967021942139,44803.0,51291.0,45855.0,43122.0,-0.3000025448675481,0.51961377298239,0.5,-0.36477234959602356,-0.5803645849227905,0.006050704978406429,0.017553003504872322,-0.01640915311872959,0.010228476487100124,-0.09824275970458984,-0.008096041157841682,0.8382279276847839,-14.575628280639648,1.640600323677063,14.799522399902344,51168.0,45833.0,50512.0,49384.0,-0.29999491024331576,-0.5196181808098181,0.5
0.626,TAKEOFF,intermittent,1.0,0.6033540964126587,0.03087787888944149,0.0023825764656066895,-0.026581943035125732,0.00706213666126132,0.024075821042060852,2.6695995330810547,1.4265648126602173,1.6148940324783325,4.528224945068359,-8.92981243133545,-0.6193975210189819,45085.0,46829.0,46851.0,42789.0,0.6,0.0,0.5,-0.4075254201889038,0.6068797707557678,0.008433004841208458,0.019460540264844894,0.00438578799366951,0.06104101613163948,0.46874386072158813,2.0381250381469727,0.13298971951007843,13.805768966674805,-32.98200225830078,-1.2970548868179321,44755.0,49630.0,47366.0,44202.0,-0.3000025448675481,0.51961377298239,0.5,-0.36477234959602356,-0.5803645849227905,0.006050704978406429,0.017553003504872322,-0.01640915311872959,0.010228476487100124,-0.28575965762138367,-0.08302362263202667,1.1185063123703003,-8.062198638916016,1.714063286781311,11.866596221923828,51742.0,47779.0,49548.0,49173.0,-0.29999491024331576,-0.5196181808098181,0.5
0.648,TAKEOFF,intermittent,1.0,0.6033540964126587,0.03087787888944149,0.0023825764656066895,-0.033685289323329926,-0.006788952741771936,0.04277387261390686,2.829744338989258,1.5456935167312622,1.6081503629684448,14.306107521057129,-2.2512993812561035,-2.0030007362365723,46395.0,48312.0,46583.0,42399.0,0.6,0.0,0.5,-0.4075254201889038,0.6068797707557678,0.008433004841208458,0.008065961301326752,-0.0005038665258325636,0.06996215134859085,0.8772952556610107,2.750272512435913,0.08341670781373978,34.97770309448242,-46.805755615234375,1.098325490951538,45553.0,51204.0,48555.0,41038.0,-0.3000025448675481,0.51961377298239,0.5,-0.3626149296760559,-0.5800924897193909,0.0060248179361224174,-0.008692680858075619,0.017389696091413498,0.015269169583916664,-0.8676739931106567,0.16049115359783173,1.311041235923767,-28.65624237060547,-4.679749011993408,10.180395126342773,50398.0,46443.0,51336.0,51055.0,-0.29999491024331576,-0.5196181808098181,0.5
0.667,TAKEOFF,intermittent,1.0,0.6033540964126587,0.03087787888944149,0.0023825764656066895,-0.012576829642057419,-0.028386536985635757,0.032168563455343246,3.638427495956421,1.5089328289031982,1.4946783781051636,18.936410903930664,-16.526039123535156,-1.1370636224746704,46351.0,49665.0,47319.0,41840.0,0.6,0.0,0.5,-0.4075254201889038,0.6068797707557678,0.008433004841208458,-0.020215937867760658,-0.012222889810800552,0.09291918575763702,1.9329891204833984,4.5320143699646,0.03925850987434387,25.807218551635742,-54.06233596801758,3.8077569007873535,43950.0,51876.0,50551.0,40203.0,-0.3000025448675481,0.51961377298239,0.5,-0.3626149296760559,-0.5800924897193909,0.0060248179361224174,-0.011878951452672482,0.027758536860346794,0.03864451125264168,-1.5261534452438354,0.5970066785812378,1.7002604007720947,15.331878662109375,-16.271913528442383,8.044890403747559,51809.0,51104.0,50558.0,46992.0,-0.29999491024331576,-0.5196181808098181,0.5
0.687,TAKEOFF,intermittent,1.0,0.6086241602897644,0.026865461841225624,0.0048614912666380405,-0.00989321619272232,-0.04428250715136528,0.024818016216158867,4.005003452301025,1.876983642578125,1.3497416973114014,15.482696533203125,-21.281511306762695,-1.8300836086273193,46351.0,49665.0,47319.0,41840.0,0.6,0.0,0.5,-0.4075254201889038,0.6068797707557678,0.008433004841208458,-0.03605593368411064,-0.014783539809286594,0.07954858988523483,2.3513712882995605,5.621773719787598,0.009388396516442299,5.911421775817871,-52.48716735839844,3.55668044090271,43950.0,51876.0,50551.0,40203.0,-0.3000025448675481,0.51961377298239,0.5,-0.3626149296760559,-0.5800924897193909,0.0060248179361224174,-0.015041225589811802,0.03218171373009682,0.05133860558271408,-1.161130666732788,0.8940500020980835,1.8809558153152466,24.549701690673828,-8.514974594116211,8.2557373046875,53603.0,50754.0,49440.0,47907.0,-0.29999491024331576,-0.5196181808098181,0.5
0.708,TAKEOFF,intermittent,1.0,0.6086241602897644,0.026865461841225624,0.0048614912666380405,-0.015553652308881283,-0.05781475827097893,0.023443669080734253,4.005003452301025,1.876983642578125,1.3497416973114014,15.482696533203125,-21.281511306762695,-1.8300836086273193,46522.0,49446.0,48071.0,43390.0,0.6,0.0,0.5,-0.408384770154953,0.6072560548782349,0.012057255953550339,-0.03605593368411064,-0.014783539809286594,0.07954858988523483,2.3513712882995605,5.621773719787598,0.009388396516442299,5.911421775817871,-52.48716735839844,3.55668044090271,46655.0,51002.0,49871.0,42005.0,-0.3000025448675481,0.51961377298239,0.5,-0.3626149296760559,-0.5800924897193909,0.0060248179361224174,-0.015041225589811802,0.03218171373009682,0.05133860558271408,-1.161130666732788,0.8940500020980835,1.8809558153152466,24.549701690673828,-8.514974594116211,8.2557373046875,53508.0,49985.0,49597.0,49249.0,-0.29999491024331576,-0.5196181808098181,0.5
0.727,TAKEOFF,intermittent,1.0,0.6086241602897644,0.026865461841225624,0.0048614912666380405,-0.015553652308881283,-0.05781475827097893,0.023443669080734253,4.150991916656494,2.2540712356567383,1.290837049484253,-4.762909412384033,-19.314329147338867,-0.28251880407333374,46137.0,48318.0,49088.0,45302.0,0.6,0.0,0.5,-0.408384770154953,0.6072560548782349,0.012057255953550339,-0.059219539165496826,-0.023644044995307922,0.0911417007446289,2.1508030891418457,6.859156608581543,0.15822231769561768,-23.888973236083984,-0.6090328097343445,8.680475234985352,46612.0,48623.0,51293.0,43952.0,-0.3000025448675481,0.51961377298239,0.5,-0.36645248532295227,-0.5744250416755676,0.008177654817700386,-0.018568987026810646,0.03500289469957352,0.06563377380371094,-0.7112427949905396,0.9205743670463562,2.0310745239257812,20.77217674255371,6.143701076507568,4.985116481781006,52223.0,49916.0,50861.0,49967.0,-0.29999491024331576,-0.5196181808098181,0.5
0.747,TAKEOFF,intermittent,1.0,0.6086241602897644,0.026865461841225624,0.0048614912666380405,-0.046189967542886734,-0.08476247638463974,0.026593850925564766,3.862940549850464,2.5091633796691895,1.279041051864624,-29.00691032409668,-0.15840603411197662,-1.486968994140625,44498.0,46082.0,50566.0,48046.0,0.6,0.0,0.5,-0.408384770154953,0.6072560548782349,0.012057255953550339,-0.08480546623468399,-0.032131727784872055,0.09972015023231506,1.5985110998153687,6.8092756271362305,0.3264228105545044,-24.13079261779785,15.81092643737793,7.656490802764893,46649.0,49294.0,50472.0,44929.0,-0.3000025448675481,0.51961377298239,0.5,-0.36645248532295227,-0.5744250416755676,0.008177654817700386,-0.006912854965776205,0.032710932195186615,0.08123088628053665,-0.3242489993572235,0.6964290738105774,2.061192750930786,10.919229507446289,4.736493110656738,1.8300615549087524,54129.0,49627.0,49435.0,49758.0,-0.29999491024331576,-0.5196181808098181,0.5
0.767,TAKEOFF,intermittent,1.0,0.6086241602897644,0.026865461841225624,0.0048614912666380405,-0.054829731583595276,-0.09591394662857056,0.025628043338656425,1.3637187480926514,2.3074874877929688,1.2601014375686646,-72.49353790283203,21.431102752685547,-0.19257918000221252,48112.0,48095.0,48681.0,46997.0,0.6,0.0,0.5,-0.408384770154953,0.6072560548782349,0.012057255953550339,-0.15671846270561218,-0.026752281934022903,0.11785591393709183,1.0374069213867188,6.438454627990723,0.4703269600868225,-23.576051712036133,28.077211380004883,8.63429069519043,47149.0,49669.0,50035.0,45785.0,-0.3000025448675481,0.51961377298239,0.5,-0.36645248532295227,-0.5744250416755676,0.008177654817700386,-0.010762273333966732,0.03255484998226166,0.10476337373256683,0.2881876826286316,0.46822282671928406,2.314735174179077,26.556884765625,-10.787721633911133,11.016742706298828,53321.0,52243.0,51154.0,46491.0,-0.29999491024331576,-0.5196181808098181,0.5
0.787,TAKEOFF,intermittent,1.0,0.6052574515342712,0.021990763023495674,0.008263202384114265,-0.05726959556341171,-0.0794038251042366,0.029882797971367836,0.04515773057937622,1.7620954513549805,1.2638025283813477,-29.636951446533203,27.34160041809082,1.6274298429489136,49465.0,50493.0,48248.0,44455.0,0.6,0.0,0.5,-0.4229801595211029,0.608558177947998,0.02074754610657692,-0.18299758434295654,-0.024733439087867737,0.13539931178092957,0.49179354310035706,5.890469074249268,0.6645603775978088,-17.122631072998047,38.61703109741211,8.486721992492676,50356.0,48914.0,47935.0,45761.0,-0.3000025448675481,0.51961377298239,0.5,-0.36645248532295227,-0.5744250416755676,0.008177654817700386,-0.002133147092536092,0.025988642126321793,0.08330877125263214,0.5478549599647522,0.7449613213539124,2.5554263591766357,-12.936225891113281,-8.176690101623535,13.465496063232422,51428.0,47631.0,53686.0,51110.0,-0.29999491024331576,-0.5196181808098181,0.5
0.807,TAKEOFF,intermittent,1.0,0.6052574515342712,0.021990763023495674,0.008263202384114265,-0.05507804453372955,-0.08100862056016922,0.035544637590646744,-0.17840014398097992,1.300979495048523,1.2739195823669434,13.6300630569458,11.906656265258789,4.975473880767822,50860.0,52490.0,47238.0,41824.0,0.6,0.0,0.5,-0.4229801595211029,0.608558177947998,0.02074754610657692,-0.2063305675983429,-0.020559970289468765,0.15850375592708588,0.280320405960083,5.065855026245117,0.8600078821182251,8.19106674194336,60.13319778442383,9.355192184448242,51094.0,50069.0,47164.0,44027.0,-0.3000025448675481,0.51961377298239,0.5,-0.36245375871658325,-0.5723298788070679,0.010394479148089886,-0.0022367662750184536,0.021628404036164284,0.09090453386306763,0.0814732164144516,0.648094654083252,2.7764525413513184,-34.82858657836914,13.192480087280273,15.431546211242676,53506.0,46237.0,53238.0,53055.0,-0.29999491024331576,-0.5196181808098181,0.5
0.828,TAKEOFF,intermittent,1.0,0.6052574515342712,0.021990763023495674,0.008263202384114265,-0.05995616316795349,-0.08049219846725464,0.04300422593951225,-0.17840014398097992,1.300979495048523,1.2739195823669434,13.6300630569458,11.906656265258789,4.975473880767822,50860.0,52490.0,47238.0,41824.0,0.6,0.0,0.5,-0.4229801595211029,0.608558177947998,0.02074754610657692,-0.2063305675983429,-0.020559970289468765,0.15850375592708588,0.4849986433982849,3.8145570755004883,1.0887172222137451,26.500701904296875,66.80675506591797,9.428583145141602,51094.0,50069.0,47164.0,44027.0,-0.3000025448675481,0.51961377298239,0.5,-0.36245375871658325,-0.5723298788070679,0.010394479148089886,-0.0022367662750184536,0.021628404036164284,0.09090453386306763,0.0814732164144516,0.648094654083252,2.7764525413513184,-34.82858657836914,13.192480087280273,15.431546211242676,54344.0,47223.0,52803.0,52702.0,-0.29999491024331576,-0.5196181808098181,0.5
0.847,TAKEOFF,intermittent,1.0,0.6052574515342712,0.021990763023495674,0.008263202384114265,-0.08104133605957031,-0.08362872153520584,0.06421316415071487,0.49246323108673096,1.0823932886123657,1.3745826482772827,52.94269561767578,10.135985374450684,5.478271007537842,50739.0,52869.0,47804.0,41660.0,0.6,0.0,0.5,-0.4229801595211029,0.608558177947998,0.02074754610657692,-0.22179876267910004,-0.019340718165040016,0.17758703231811523,0.9628207683563232,2.4248600006103516,1.3264364004135132,25.846200942993164,74.09989929199219,8.578790664672852,51340.0,49902.0,46951.0,44162.0,-0.3000025448675481,0.51961377298239,0.5,-0.36245375871658325,-0.5723298788070679,0.010394479148089886,-0.0035690825898200274,0.023296864703297615,0.11161475628614426,-0.6022114753723145,0.23341508209705353,3.0258123874664307,-27.32204246520996,23.26597023010254,14.093535423278809,55557.0,48516.0,51652.0,51656.0,-0.29999491024331576,-0.5196181808098181,0.5
0.867,TAKEOFF,intermittent,1.0,0.6052574515342712,0.021990763023495674,0.008263202384114265,-0.08508451282978058,-0.08854471892118454,0.0714251771569252,1.6193040609359741,1.1755646467208862,1.4845956563949585,57.88418960571289,-1.1505699157714844,6.3629584312438965,51492.0,53539.0,47324.0,40181.0,0.6,0.0,0.5,-0.4229801595211029,0.608558177947998,0.02074754610657692,-0.2303529977798462,-0.021450813859701157,0.1963990330696106,1.3296623229980469,0.9186900854110718,1.5519212484359741,8.377869606018066,71.85748291015625,7.237194538116455,50597.0,47591.0,47890.0,46815.0,-0.3000025448675481,0.51961377298239,0.5,-0.36245375871658325,-0.5723298788070679,0.010394479148089886,-0.0034243520349264145,0.02671150676906109,0.1258842498064041,-0.9946454167366028,-0.1736510843038559,3.298410415649414,-4.812680244445801,18.138614654541016,12.874090194702148,57084.0,50846.0,49791.0,49871.0,-0.29999491024331576,-0.5196181808098181,0.5
0.887,TAKEOFF,intermittent,1.0,0.6052574515342712,0.021990763023495674,0.008263202384114265,-0.08922452479600906,-0.09774401038885117,0.08247994631528854,2.7518293857574463,1.2257052659988403,1.62177574634552,53.43700408935547,-0.014582645148038864,9.80564022064209,51223.0,51839.0,48240.0,43183.0,0.6,0.0,0.5,-0.4229801595211029,0.608558177947998,0.02074754610657692,-0.23223364353179932,-0.0263757836073637,0.21174925565719604,1.5130878686904907,-0.4991886615753174,1.7282391786575317,4.2744975090026855,65.05215454101562,6.135143280029297,50522.0,47781.0,48029.0,46625.0,-0.3000025448675481,0.51961377298239,0.5,-0.36245375871658325,-0.5723298788070679,0.010394479148089886,-0.0019333410309627652,0.0299654770642519,0.14084413647651672,-0.777313768863678,-0.536095917224884,3.51993727684021,30.108535766601562,15.812125205993652,9.629265785217285,58605.0,50924.0,47584.0,50100.0,-0.29999491024331576,-0.5196181808098181,0.5
0.909,TAKEOFF,intermittent,1.0,0.5980032682418823,0.011160437017679214,0.016328467056155205,-0.078309565782547,-0.09397877752780914,0.10152161866426468,3.3774030208587646,0.8291555643081665,2.007316827774048,-38.97697067260742,6.752340793609619,11.009182929992676,48171.0,49714.0,51462.0,45780.0,0.6,0.0,0.5,-0.44427385926246643,0.6080090403556824,0.041636087000370026,-0.21860536932945251,-0.040356893092393875,0.22874952852725983,1.51742422580719,-1.807201623916626,1.874606966972351,-10.358516693115234,58.73997497558594,3.1368560791015625,50166.0,47214.0,48366.0,47578.0,-0.3000025448675481,0.51961377298239,0.5,-0.36264917254447937,-0.5696845650672913,0.02290642447769642,0.005744932219386101,0.02811298705637455,0.16819198429584503,1.035603404045105,-1.3738977909088135,3.845226764678955,44.004146575927734,27.92976188659668,6.695248126983643,58518.0,50358.0,47970.0,50792.0,-0.29999491024331576,-0.5196181808098181,0.5
0.927,TAKEOFF,intermittent,1.0,0.5980032682418823,0.011160437017679214,0.016328467056155205,-0.08158561587333679,-0.11455854028463364,0.11524698138237,2.116227388381958,0.7228356599807739,2.137413501739502,-101.9684829711914,2.7685558795928955,12.129803657531738,43769.0,45067.0,55269.0,50507.0,0.6,0.0,0.5,-0.44427385926246643,0.6080090403556824,0.041636087000370026,-0.20439426600933075,-0.0474761426448822,0.2351561188697815,1.264653205871582,-2.9583969116210938,1.9935203790664673,-20.61575698852539,50.10689163208008,5.026184558868408,49754.0,46853.0,49247.0,47928.0,-0.3000025448675481,0.51961377298239,0.5,-0.36264917254447937,-0.5696845650672913,0.02290642447769642,0.09046786278486252,-0.019750112667679787,0.20372141897678375,1.7057709693908691,-1.8030238151550293,3.9891107082366943,12.002381324768066,11.612025260925293,7.22849178314209,56115.0,49170.0,51693.0,52003.0,-0.29999491024331576,-0.5196181808098181,0.5
0.947,TAKEOFF,intermittent,1.0,0.5980032682418823,0.011160437017679214,0.016328467056155205,-0.0881742462515831,-0.1165182814002037,0.13001424074172974,2.116227388381958,0.7228356599807739,2.137413501739502,-101.9684829711914,2.7685558795928955,12.129803657531738,43769.0,45067.0,55269.0,50507.0,0.6,0.0,0.5,-0.44427385926246643,0.6080090403556824,0.041636087000370026,-0.20439426600933075,-0.0474761426448822,0.2351561188697815,0.8262850046157837,-3.9188733100891113,2.095784902572632,-22.30287742614746,31.962604522705078,5.862794876098633,49041.0,48998.0,49503.0,46786.0,-0.3000025448675481,0.51961377298239,0.5,-0.36264917254447937,-0.5696845650672913,0.02290642447769642,0.09046786278486252,-0.019750112667679787,0.20372141897678375,1.94893479347229,-2.392589569091797,4.24121618270874,-30.796667098999023,-14.307239532470703,9.557331085205078,54429.0,47617.0,53350.0,52341.0,-0.29999491024331576,-0.5196181808098181,0.5
0.967,TAKEOFF,intermittent,1.0,0.5980032682418823,0.011160437017679214,0.016328467056155205,-0.0881742462515831,-0.1165182814002037,0.13001424074172974,-0.22305022180080414,0.6484923362731934,2.4088850021362305,-122.90813446044922,6.953951358795166,11.54651165008545,47398.0,46222.0,53097.0,49378.0,0.6,0.0,0.5,-0.44427385926246643,0.6080090403556824,0.041636087000370026,-0.1837318241596222,-0.04366092011332512,0.22917994856834412,0.8262850046157837,-3.9188733100891113,2.095784902572632,-22.30287742614746,31.962604522705078,5.862794876098633,48795.0,48063.0,51483.0,46971.0,-0.3000025448675481,0.51961377298239,0.5,-0.36264917254447937,-0.5696845650672913,0.02290642447769642,0.09980642795562744,-0.026437846943736076,0.21621371805667877,1.94893479347229,-2.392589569091797,4.24121618270874,-30.796667098999023,-14.307239532470703,9.557331085205078,54429.0,47617.0,53350.0,52341.0,-0.29999491024331576,-0.5196181808098181,0.5
0.987,TAKEOFF,intermittent,1.0,0.5835456252098083,0.0060175028629601,0.034095603972673416,-0.0929802656173706,-0.10740333795547485,0.1726856529712677,-2.438369035720825,0.35105207562446594,2.677626848220825,-81.28009796142578,25.624361038208008,12.085456848144531,49107.0,47958.0,51406.0,47582.0,0.6,0.0,0.5,-0.44427385926246643,0.6080090403556824,0.041636087000370026,-0.1665479987859726,-0.04668257385492325,0.23309443891048431,0.40883249044418335,-4.486969470977783,2.2747039794921875,-20.081872940063477,16.818849563598633,9.44078540802002,48795.0,48063.0,51483.0,46971.0,-0.3000025448675481,0.51961377298239,0.5,-0.36264917254447937,-0.5696845650672913,0.02290642447769642,0.09980642795562744,-0.026437846943736076,0.21621371805667877,1.94893479347229,-2.392589569091797,4.24121618270874,-30.796667098999023,-14.307239532470703,9.557331085205078,54429.0,47617.0,53350.0,52341.0,-0.29999491024331576,-0.5196181808098181,0.5
1.007,TAKEOFF,intermittent,1.0,0.5835456252098083,0.0060175028629601,0.034095603972673416,-0.0929802656173706,-0.10740333795547485,0.1726856529712677,-3.5424933433532715,-0.2368382066488266,2.8545947074890137,-18.607158660888672,34.947147369384766,8.200740814208984,51924.0,50364.0,48609.0,45370.0,0.6,0.0,0.5,-0.4586485028266907,0.6050955653190613,0.06049562618136406,-0.14798089861869812,-0.04587506130337715,0.23118014633655548,0.18434683978557587,-4.789751052856445,2.4434235095977783,-0.22936245799064636,6.097963809967041,8.560009002685547,50589.0,50118.0,49665.0,45390.0,-0.3000025448675481,0.51961377298239,0.5,-0.36264917254447937,-0.5696845650672913,0.02290642447769642,0.09040451049804688,0.0014565344899892807,0.23072364926338196,1.0519695281982422,-1.9564121961593628,4.441650867462158,-59.83136749267578,-37.64368438720703,10.968175888061523,52261.0,47377.0,55840.0,52298.0,-0.29999491024331576,-0.5196181808098181,0.5
1.027,TAKEOFF,intermittent,1.0,0.5835456252098083,0.0060175028629601,0.034095603972673416,-0.09320823848247528,-0.09470219165086746,0.1926230937242508,-3.4265851974487305,-0.9932202100753784,2.952948570251465,33.363765716552734,36.01286315917969,6.196715831756592,52131.0,51395.0,48446.0,44052.0,0.6,0.0,0.5,-0.4586485028266907,0.6050955653190613,0.06049562618136406,-0.129495307803154,-0.04621220752596855,0.23570646345615387,0.29080602526664734,-4.795310974121094,2.642333507537842,7.506676197052002,-8.680328369140625,13.09577465057373,51855.0,50685.0,50378.0,44031.0,-0.3000025448675481,0.51961377298239,0.5,-0.36264917254447937,-0.5696845650672913,0.02290642447769642,0.09040451049804688,0.0014565344899892807,0.23072364926338196,-0.4926268458366394,-0.8701226711273193,4.633577346801758,-60.06574249267578,-58.6275634765625,10.998372077941895,50953.0,48175.0,56774.0,51293.0,-0.29999491024331576,-0.5196181808098181,0.5
1.049,TAKEOFF,intermittent,1.0,0.5835456252098083,0.0060175028629601,0.034095603972673416,-0.08509135246276855,-0.06970982253551483,0.22586983442306519,-1.3975716829299927,-1.9762444496154785,3.1414833068847656,55.038246154785156,10.965517044067383,6.89340353012085,52396.0,51990.0,48310.0,43037.0,0.6,0.0,0.5,-0.4586485028266907,0.6050955653190613,0.06049562618136406,-0.11176620423793793,-0.047709062695503235,0.24415889382362366,0.5010789036750793,-4.652871131896973,2.936729907989502,10.799847602844238,-6.103559970855713,14.383000373840332,51855.0,50685.0,50378.0,44031.0,-0.3000025448675481,0.51961377298239,0.5,-0.3425888121128082,-0.5724594593048096,0.05307907611131668,0.09085363894701004,0.008748631924390793,0.24642536044120789,-1.6090350151062012,0.4288114905357361,4.7995195388793945,-35.90721130371094,-68.18655395507812,7.738590240478516,51523.0,50457.0,56274.0,49283.0,-0.29999491024331576,-0.5196181808098181,0.5
1.067,TAKEOFF,intermittent,1.0,0.5835456252098083,0.0060175028629601,0.034095603972673416,-0.07798658311367035,-0.06273190677165985,0.2390914261341095,-0.36362794041633606,-2.147270441055298,3.2356057167053223,35.220664978027344,4.1233229637146,5.405191898345947,51994.0,51539.0,49461.0,43104.0,0.6,0.0,0.5,-0.4586485028266907,0.6050955653190613,0.06049562618136406,-0.07598839700222015,-0.057742856442928314,0.24341194331645966,0.8456864953041077,-4.515348434448242,3.444467306137085,-5.3984375,-9.047892570495605,14.780040740966797,51056.0,50549.0,51315.0,45712.0,-0.3000025448675481,0.51961377298239,0.5,-0.3425888121128082,-0.5724594593048096,0.05307907611131668,0.06497962772846222,0.026523632928729057,0.27600985765457153,-1.055320143699646,3.4025352001190186,5.039615631103516,25.087047576904297,-16.08705711364746,1.3377163410186768,55782.0,50990.0,52758.0,50380.0,-0.29999491024331576,-0.5196181808098181,0.5
1.087,TAKEOFF,intermittent,1.0,0.5835456252098083,0.0060175028629601,0.034095603972673416,-0.07798658311367035,-0.06273190677165985,0.2390914261341095,-0.36362794041633606,-2.147270441055298,3.2356057167053223,35.220664978027344,4.1233229637146,5.405191898345947,51994.0,51539.0,49461.0,43104.0,0.6,0.0,0.5,-0.4586485028266907,0.6050955653190613,0.06049562618136406,-0.07598839700222015,-0.057742856442928314,0.24341194331645966,0.8456864953041077,-4.515348434448242,3.444467306137085,-5.3984375,-9.047892570495605,14.780040740966797,49748.0,50159.0,53892.0,45351.0,-0.3000025448675481,0.51961377298239,0.5,-0.3425888121128082,-0.5724594593048096,0.05307907611131668,0.06497962772846222,0.026523632928729057,0.27600985765457153,-1.055320143699646,3.4025352001190186,5.039615631103516,25.087047576904297,-16.08705711364746,1.3377163410186768,55782.0,50990.0,52758.0,50380.0,-0.29999491024331576,-0.5196181808098181,0.5
1.107,TAKEOFF,intermittent,1.0,0.5810486078262329,-0.004949755035340786,0.06239955872297287,-0.04110162705183029,-0.08126108348369598,0.28113478422164917,0.13966675102710724,-2.3161211013793945,3.2270750999450684,6.678469181060791,0.5420598387718201,5.03469705581665,48809.0,50603.0,51627.0,44898.0,0.6,0.0,0.5,-0.4586485028266907,0.6050955653190613,0.06049562618136406,-0.06051589921116829,-0.05917337164282799,0.2506925165653229,0.62638258934021,-4.264969348907471,3.749499559402466,-22.44877052307129,-16.35999298095703,13.902868270874023,49748.0,50159.0,53892.0,45351.0,-0.3000025448675481,0.51961377298239,0.5,-0.3425888121128082,-0.5724594593048096,0.05307907611131668,0.06497962772846222,0.026523632928729057,0.27600985765457153,-0.5519281625747681,3.614868402481079,5.0309648513793945,20.941225051879883,-6.471484661102295,0.33022549748420715,55082.0,51997.0,53706.0,49759.0,-0.29999491024331576,-0.5196181808098181,0.5
1.127,TAKEOFF,intermittent,1.0,0.5810486078262329,-0.004949755035340786,0.06239955872297287,-0.04110162705183029,-0.08126108348369598,0.28113478422164917,0.2757679224014282,-2.372476577758789,3.2372562885284424,-20.19602394104004,-5.416999816894531,2.988295555114746,48776.0,48638.0,51669.0,47011.0,-0.5720273124409725,0.1810656064015417,0.5,-0.4646301567554474,0.5974909663200378,0.0820801854133606,-0.05253402143716812,-0.0553499311208725,0.2618594169616699,0.21756058931350708,-3.9689040184020996,4.012309551239014,-27.34853744506836,-10.002021789550781,13.88979434967041,53199.0,49828.0,52498.0,43961.0,0.13083849819511745,-0.5855606607261508,0.5,-0.33423760533332825,-0.5715048909187317,0.07844211161136627,0.04744768887758255,0.02916717156767845,0.2938767373561859,-0.17473725974559784,3.6695377826690674,5.026458740234375,8.26193618774414,-5.573962688446045,-1.094871163368225,55154.0,51360.0,53721.0,50771.0,0.4405578160728619,0.407319052705751,0.5
1.147,TAKEOFF,intermittent,1.0,0.5810486078262329,-0.004949755035340786,0.06239955872297287,-0.03441670164465904,-0.07957463711500168,0.314690500497818,-0.085599884390831,-2.2436258792877197,3.299027681350708,-33.79366683959961,2.667544364929199,5.327601432800293,48702.0,48294.0,52820.0,46431.0,0.6,0.0,0.5,-0.4646301567554474,0.5974909663200378,0.0820801854133606,-0.03890083730220795,-0.05372585356235504,0.27212584018707275,-0.2564156949520111,-3.779376983642578,4.277170658111572,-9.948012351989746,-1.3572176694869995,8.30927562713623,51900.0,48198.0,53202.0,47050.0,-0.3000025448675481,0.51961377298239,0.5,-0.33423760533332825,-0.5715048909187317,0.07844211161136627,0.03294966742396355,0.03045940399169922,0.30481430888175964,-0.07653842121362686,3.7534525394439697,4.994935512542725,-1.8425538539886475,0.706863522529602,-3.042820930480957,55090.0,50584.0,53837.0,51865.0,-0.29999491024331576,-0.5196181808098181,0.5
1.167,TAKEOFF,intermittent,1.0,0.5810486078262329,-0.004949755035340786,0.06239955872297287,-0.03441670164465904,-0.07957463711500168,0.314690500497818,-0.7744616270065308,-2.261016845703125,3.4037909507751465,-34.967308044433594,-0.9394550919532776,6.418853282928467,48592.0,48987.0,52017.0,46747.0,0.6,0.0,0.5,-0.4646301567554474,0.5974909663200378,0.0820801854133606,-0.014623128809034824,-0.04529035463929176,0.2708294093608856,-0.4497388005256653,-3.7894399166107178,4.4393157958984375,-12.473078727722168,0.5182680487632751,6.378573417663574,53198.0,48045.0,51909.0,48114.0,-0.3000025448675481,0.51961377298239,0.5,-0.33423760533332825,-0.5715048909187317,0.07844211161136627,0.01284032966941595,0.028791531920433044,0.31265392899513245,-0.21312227845191956,3.729860544204712,4.907788276672363,-9.406694412231445,7.452060699462891,-4.190187931060791,54965.0,49994.0,53928.0,52669.0,-0.29999491024331576,-0.5196181808098181,0.5
1.187,TAKEOFF,intermittent,1.0,0.5810486078262329,-0.004949755035340786,0.06239955872297287,-0.021066386252641678,-0.05781271681189537,0.3322944641113281,-1.4377256631851196,-2.3278114795684814,3.4569168090820312,-24.47795295715332,-2.7088515758514404,5.4724931716918945,50390.0,48545.0,51536.0,46113.0,0.6,0.0,0.5,-0.4646301567554474,0.5974909663200378,0.0820801854133606,0.0008400109363719821,-0.03728055953979492,0.2780265510082245,-0.6787286996841431,-3.9280309677124023,4.537633895874023,-10.058663368225098,11.709565162658691,4.524908542633057,53224.0,49385.0,51198.0,48052.0,-0.3000025448675481,0.51961377298239,0.5,-0.33423760533332825,-0.5715048909187317,0.07844211161136627,2.418194981146371e-06,0.02896965853869915,0.3186129033565521,-0.39613211154937744,3.576737880706787,4.814363479614258,-9.63751220703125,9.07007884979248,-5.79063081741333,54708.0,50824.0,54033.0,52643.0,-0.29999491024331576,-0.5196181808098181,0.5
1.209,TAKEOFF,intermittent,1.0,0.5770375728607178,-0.008655873127281666,0.0921376571059227,-0.021066386252641678,-0.05781271681189537,0.3322944641113281,-2.044074535369873,-2.216775417327881,3.642746686935425,-17.547348022460938,3.8690528869628906,4.401723861694336,49378.0,49827.0,50908.0,46909.0,0.6,0.0,0.5,-0.46276137232780457,0.5920829772949219,0.10835351794958115,0.015573780983686447,-0.032227758318185806,0.29183876514434814,-0.8849129676818848,-4.169516086578369,4.612478256225586,-8.581014633178711,10.441237449645996,2.8752527236938477,52798.0,50494.0,51372.0,47305.0,-0.3000025448675481,0.51961377298239,0.5,-0.33423760533332825,-0.5715048909187317,0.07844211161136627,7.684758020332083e-05,0.02855970896780491,0.3240545094013214,-0.3425810933113098,3.352538585662842,4.795182228088379,-1.2195191383361816,3.605181932449341,-7.691054821014404,54777.0,51619.0,53954.0,52048.0,-0.29999491024331576,-0.5196181808098181,0.5
1.228,TAKEOFF,intermittent,1.0,0.5770375728607178,-0.008655873127281666,0.0921376571059227,-0.012008600868284702,-0.047303035855293274,0.33981552720069885,-2.3894078731536865,-2.306455135345459,3.726857900619507,-4.512519359588623,0.36303412914276123,3.0800867080688477,49428.0,50466.0,51133.0,46151.0,0.6,0.0,0.5,-0.46276137232780457,0.5920829772949219,0.10835351794958115,0.04394608363509178,-0.04408089444041252,0.3015403747558594,-0.8730378746986389,-4.401302814483643,4.671167373657227,-2.8651769161224365,3.987596035003662,0.9320241808891296,52113.0,49662.0,52287.0,48326.0,-0.3000025448675481,0.51961377298239,0.5,-0.3316546082496643,-0.5699548721313477,0.11501774936914444,-0.020397892221808434,0.02869557775557041,0.3414838910102844,-0.49544915556907654,3.349588394165039,4.55814790725708,3.6734261512756348,0.687606692314148,-7.4967041015625,54421.0,52521.0,54177.0,51350.0,-0.29999491024331576,-0.5196181808098181,0.5
1.246,TAKEOFF,intermittent,1.0,0.5770375728607178,-0.008655873127281666,0.0921376571059227,-0.0010199269745498896,-0.0170268677175045,0.34978440403938293,-2.492914915084839,-2.2923429012298584,3.8196277618408203,3.721240520477295,-4.249783039093018,3.7558705806732178,50201.0,50183.0,51210.0,45613.0,0.6,0.0,0.5,-0.46276137232780457,0.5920829772949219,0.10835351794958115,0.05498332902789116,-0.03956908732652664,0.3122882544994354,-1.0655269622802734,-4.0368733406066895,4.754183769226074,-2.3557066917419434,-23.038822174072266,-0.19624489545822144,51792.0,50796.0,52728.0,46786.0,-0.3000025448675481,0.51961377298239,0.5,-0.3316546082496643,-0.5699548721313477,0.11501774936914444,-0.027798257768154144,0.03199777007102966,0.3495933711528778,-0.4351359009742737,3.371558904647827,4.444437026977539,5.285552024841309,-1.2411686182022095,-7.998457908630371,54563.0,52270.0,54089.0,51846.0,-0.29999491024331576,-0.5196181808098181,0.5
1.267,TAKEOFF,intermittent,1.0,0.5770375728607178,-0.008655873127281666,0.0921376571059227,-0.013780555687844753,-0.010108089074492455,0.3532571792602539,-2.4447782039642334,-2.143599510192871,3.9777815341949463,14.327093124389648,-7.120814323425293,2.958041191101074,50415.0,50442.0,51013.0,44968.0,0.6,0.0,0.5,-0.46276137232780457,0.5920829772949219,0.10835351794958115,0.06955468654632568,-0.034551315009593964,0.32377931475639343,-1.0979721546173096,-3.497501850128174,4.78831148147583,-2.3084359169006348,-28.97726821899414,0.5069087743759155,51610.0,50490.0,52857.0,46606.0,-0.3000025448675481,0.51961377298239,0.5,-0.3316546082496643,-0.5699548721313477,0.11501774936914444,-0.03997219353914261,0.03239091485738754,0.3580123782157898,-0.32692262530326843,3.3856425285339355,4.2627973556518555,5.249090671539307,1.931178331375122,-8.128849029541016,54879.0,51669.0,53439.0,52305.0,-0.29999491024331576,-0.5196181808098181,0.5
1.289,TAKEOFF,intermittent,1.0,0.5713974237442017,-0.006450496148318052,0.12572811543941498,-0.011161023750901222,0.0017343036597594619,0.35965949296951294,-2.183201789855957,-1.8302720785140991,4.148509502410889,17.221843719482422,-8.843774795532227,3.5057215690612793,50438.0,51197.0,50833.0,43800.0,0.6,0.0,0.5,-0.4593626856803894,0.5917224287986755,0.14032962918281555,0.0775275006890297,-0.01792297698557377,0.3378392159938812,-1.0979721546173096,-3.497501850128174,4.78831148147583,-2.3084359169006348,-28.97726821899414,0.5069087743759155,50728.0,49702.0,53417.0,47096.0,-0.3000025448675481,0.51961377298239,0.5,-0.3316546082496643,-0.5699548721313477,0.11501774936914444,-0.05195270851254463,0.03238019719719887,0.3661603629589081,-0.20620593428611755,3.332531452178955,4.096144676208496,4.7591872215271,6.481703281402588,-8.425613403320312,54879.0,51669.0,53439.0,52305.0,-0.29999491024331576,-0.5196181808098181,0.5
1.308,TAKEOFF,intermittent,1.0,0.5713974237442017,-0.006450496148318052,0.12572811543941498,-0.0038292668759822845,0.0047853076830506325,0.3599480092525482,-1.803542137145996,-1.6657743453979492,4.2158026695251465,19.43033790588379,-9.277215003967285,2.6372735500335693,49718.0,50111.0,51330.0,45000.0,0.6,0.0,0.5,-0.4593626856803894,0.5917224287986755,0.14032962918281555,0.0844886377453804,-0.008666443638503551,0.3546322286128998,-1.2419286966323853,-2.1602933406829834,4.88405179977417,3.218846559524536,-29.24774932861328,-0.3638243079185486,51504.0,50889.0,52200.0,45340.0,-0.3000025448675481,0.51961377298239,0.5,-0.3316546082496643,-0.5699548721313477,0.11501774936914444,-0.056835006922483444,0.02685239166021347,0.37815040349960327,-0.042818233370780945,3.1489853858947754,3.925752639770508,7.018148422241211,12.81594467163086,-8.43509292602539,55493.0,51917.0,52021.0,51450.0,-0.29999491024331576,-0.5196181808098181,0.5
1.327,TAKEOFF,intermittent,1.0,0.5713974237442017,-0.006450496148318052,0.12572811543941498,0.0007410329417325556,0.011666079983115196,0.36330366134643555,-1.4303655624389648,-1.4866695404052734,4.304778099060059,13.7862548828125,-4.577986240386963,2.5078415870666504,50031.0,49609.0,51019.0,45378.0,0.6,0.0,0.5,-0.4593626856803894,0.5917224287986755,0.14032962918281555,0.09251348674297333,-0.0033756219781935215,0.36859580874443054,-1.2419286966323853,-2.1602933406829834,4.88405179977417,3.218846559524536,-29.24774932861328,-0.3638243079185486,51764.0,49680.0,51599.0,46369.0,-0.3000025448675481,0.51961377298239,0.5,-0.3324640393257141,-0.5675990581512451,0.14811234176158905,-0.05015081167221069,0.01989412121474743,0.38199153542518616,0.1708216667175293,2.791595935821533,3.7975614070892334,10.634647369384766,14.971745491027832,-7.678377151489258,54914.0,51641.0,52381.0,51507.0,-0.29999491024331576,-0.5196181808098181,0.5
1.35,TAKEOFF,intermittent,1.0,0.5713974237442017,-0.006450496148318052,0.12572811543941498,0.0007410329417325556,0.011666079983115196,0.36330366134643555,-1.165907621383667,-1.3946363925933838,4.370420932769775,8.62872314453125,-0.7901780009269714,2.1176717281341553,50184.0,49540.0,50790.0,45220.0,0.6,0.0,0.5,-0.4593626856803894,0.5917224287986755,0.14032962918281555,0.09845446050167084,0.0015842553693801165,0.3824145495891571,-1.205818772315979,-1.6155667304992676,4.8912153244018555,4.096604824066162,-22.365453720092773,-1.697644829750061,51619.0,50622.0,51170.0,44945.0,-0.3000025448675481,0.51961377298239,0.5,-0.3324640393257141,-0.5675990581512451,0.14811234176158905,-0.06384513527154922,0.015850432217121124,0.39196330308914185,0.45396625995635986,2.383699655532837,3.5421762466430664,5.224765777587891,16.46774673461914,-7.753603458404541,54914.0,51641.0,52381.0,51507.0,-0.29999491024331576,-0.5196181808098181,0.5
1.367,TAKEOFF,intermittent,1.0,0.5713974237442017,-0.006450496148318052,0.12572811543941498,0.009739750064909458,0.022340666502714157,0.37792181968688965,-0.9166683554649353,-1.43669593334198,4.434789657592773,2.6455790996551514,2.4817521572113037,1.171557903289795,49374.0,49588.0,51257.0,45025.0,0.6,0.0,0.5,-0.4593626856803894,0.5917224287986755,0.14032962918281555,0.10285206139087677,0.006195487454533577,0.3928047716617584,-0.792008101940155,-1.3052150011062622,4.771841049194336,0.47457191348075867,-8.402307510375977,-3.8470776081085205,51730.0,51058.0,50109.0,45267.0,-0.3000025448675481,0.51961377298239,0.5,-0.3324640393257141,-0.5675990581512451,0.14811234176158905,-0.06222688406705856,0.001521084806881845,0.4066877067089081,0.5007349848747253,2.2273318767547607,3.46171236038208,0.7115553617477417,13.803119659423828,-8.560345649719238,54332.0,50839.0,52420.0,52172.0,-0.29999491024331576,-0.5196181808098181,0.5
1.387,TAKEOFF,intermittent,1.0,0.5718613266944885,-0.0036993646062910557,0.1633942425251007,0.014565442688763142,0.025910547003149986,0.3832193613052368,-0.8599334955215454,-1.494801640510559,4.464189052581787,4.459769248962402,1.498879075050354,1.4302082061767578,49558.0,49074.0,51039.0,45196.0,0.6,0.0,0.5,-0.4593626856803894,0.5917224287986755,0.14032962918281555,0.14484651386737823,-0.021182768046855927,0.39707151055336,-0.782181978225708,-1.1559429168701172,4.674928188323975,-0.5559310913085938,-8.200895309448242,-4.766293048858643,51908.0,50202.0,49986.0,45142.0,-0.3000025448675481,0.51961377298239,0.5,-0.3324640393257141,-0.5675990581512451,0.14811234176158905,-0.0654485896229744,0.0002922634594142437,0.4107538163661957,0.5889323949813843,1.84531569480896,3.2711799144744873,-4.7081403732299805,8.934296607971191,-7.87569522857666,53565.0,50715.0,52884.0,51969.0,-0.29999491024331576,-0.5196181808098181,0.5
1.408,TAKEOFF,intermittent,1.0,0.5718613266944885,-0.0036993646062910557,0.1633942425251007,0.014565442688763142,0.025910547003149986,0.3832193613052368,-0.8599334955215454,-1.494801640510559,4.464189052581787,4.459769248962402,1.498879075050354,1.4302082061767578,50007.0,49241.0,50357.0,44883.0,0.6,0.0,0.5,-0.4418339133262634,0.5858403444290161,0.17834919691085815,0.1486043781042099,-0.01735326275229454,0.4096258580684662,-0.782181978225708,-1.1559429168701172,4.674928188323975,-0.5559310913085938,-8.200895309448242,-4.766293048858643,49805.0,49937.0,50851.0,46149.0,-0.3000025448675481,0.51961377298239,0.5,-0.3395766317844391,-0.5676758289337158,0.18888045847415924,-0.08737293630838394,0.014036688953638077,0.4135071933269501,0.4894203841686249,1.6771563291549683,3.1232802867889404,-6.779898166656494,5.98328161239624,-7.299429416656494,52608.0,51138.0,53069.0,50740.0,-0.29999491024331576,-0.5196181808098181,0.5
1.427,TAKEOFF,intermittent,1.0,0.5718613266944885,-0.0036993646062910557,0.1633942425251007,0.06339770555496216,0.0018351657781749964,0.40461158752441406,-0.4004754424095154,-1.7899807691574097,4.402969837188721,6.158743381500244,-0.30337995290756226,1.6051664352416992,49898.0,49241.0,50366.0,44970.0,0.6,0.0,0.5,-0.4418339133262634,0.5858403444290161,0.17834919691085815,0.15789620578289032,-0.018525810912251472,0.4146571159362793,-0.8315110802650452,-0.6005006432533264,4.434743404388428,-10.177332878112793,-20.10674285888672,-4.05255651473999,50885.0,48059.0,50313.0,46830.0,-0.3000025448675481,0.51961377298239,0.5,-0.3395766317844391,-0.5676758289337158,0.18888045847415924,-0.09338045120239258,0.012838785536587238,0.4192616045475006,0.21174338459968567,1.703871726989746,2.9912121295928955,-5.920557498931885,1.7661844491958618,-6.381912708282471,53146.0,50574.0,52353.0,51028.0,-0.29999491024331576,-0.5196181808098181,0.5
1.447,TAKEOFF,intermittent,1.0,0.5718613266944885,-0.0036993646062910557,0.1633942425251007,0.06950218975543976,0.003585943952202797,0.4078753590583801,-0.4004754424095154,-1.7899807691574097,4.402969837188721,6.158743381500244,-0.30337995290756226,1.6051664352416992,49416.0,48766.0,50494.0,44064.0,0.6,0.0,0.5,-0.4418339133262634,0.5858403444290161,0.17834919691085815,0.15751051902770996,-0.015813589096069336,0.42644649744033813,-0.9485828280448914,-0.06863360106945038,4.371271133422852,-4.890769958496094,-29.886594772338867,-4.704946041107178,49700.0,49362.0,50934.0,44890.0,-0.3000025448675481,0.51961377298239,0.5,-0.3395766317844391,-0.5676758289337158,0.18888045847415924,-0.09977350383996964,0.012893928214907646,0.4170741140842438,0.09995816648006439,1.6318223476409912,2.8429296016693115,-2.648797035217285,4.501871585845947,-4.797207355499268,53313.0,50695.0,51929.0,50473.0,-0.29999491024331576,-0.5196181808098181,0.5
1.467,TAKEOFF,intermittent,1.0,0.5718613266944885,-0.0036993646062910557,0.1633942425251007,0.053975909948349,0.024425212293863297,0.4052756726741791,-0.4590126574039459,-1.648113489151001,4.496145725250244,4.082670211791992,-6.550370693206787,0.8671402335166931,49033.0,48682.0,50450.0,44404.0,0.6,0.0,0.5,-0.4418339133262634,0.5858403444290161,0.17834919691085815,0.15797731280326843,-0.012467813678085804,0.43309861421585083,-0.9485828280448914,-0.06863360106945038,4.371271133422852,-4.890769958496094,-29.886594772338867,-4.704946041107178,49152.0,49617.0,51195.0,44007.0,-0.3000025448675481,0.51961377298239,0.5,-0.3395766317844391,-0.5676758289337158,0.18888045847415924,-0.09940778464078903,0.012381166219711304,0.4178624451160431,0.040511563420295715,1.5101523399353027,2.7737925052642822,1.477096676826477,7.714306831359863,-4.005743503570557,53724.0,50423.0,51201.0,50508.0,-0.29999491024331576,-0.5196181808098181,0.5
1.488,TAKEOFF,intermittent,1.0,0.5718613266944885,-0.0036993646062910557,0.1633942425251007,0.053975909948349,0.024425212293863297,0.4052756726741791,-0.3142361044883728,-1.4536223411560059,4.502615451812744,2.8152475357055664,-8.991413116455078,0.680592954158783,48849.0,48917.0,50654.0,43595.0,0.6,0.0,0.5,-0.4418339133262634,0.5858403444290161,0.17834919691085815,0.1163470521569252,0.018438536673784256,0.4391617774963379,-1.3275835514068604,0.8515274524688721,4.335598945617676,-9.294110298156738,-33.34642791748047,-5.06339168548584,48130.0,49977.0,51686.0,43241.0,-0.3000025448675481,0.51961377298239,0.5,-0.3395766317844391,-0.5676758289337158,0.18888045847415924,-0.10423766821622849,0.011921564117074013,0.42201265692710876,0.08448601514101028,1.339751124382019,2.698479413986206,5.943949222564697,12.10426139831543,-3.879077196121216,53698.0,49409.0,51051.0,51097.0,-0.29999491024331576,-0.5196181808098181,0.5
1.508,TAKEOFF,intermittent,1.0,0.5808914303779602,-0.0019077181350439787,0.2059297412633896,0.06361601501703262,0.016733918339014053,0.41094011068344116,-0.3019956946372986,-1.2533044815063477,4.5023579597473145,-0.9706787467002869,-11.894143104553223,1.8359675407409668,48849.0,48917.0,50654.0,43595.0,0.6,0.0,0.5,-0.4418339133262634,0.5858403444290161,0.17834919691085815,0.10302119702100754,0.029762547463178635,0.4486560821533203,-1.5215414762496948,1.5825300216674805,4.273238658905029,-5.487388610839844,-30.826547622680664,-5.149595737457275,48130.0,49977.0,51686.0,43241.0,-0.3000025448675481,0.51961377298239,0.5,-0.3395766317844391,-0.5676758289337158,0.18888045847415924,-0.10838041454553604,0.007081745192408562,0.42131760716438293,0.21186628937721252,1.1064130067825317,2.6187644004821777,4.845665454864502,16.176294326782227,-2.5904130935668945,53698.0,49409.0,51051.0,51097.0,-0.29999491024331576,-0.5196181808098181,0.5
1.527,TAKEOFF,intermittent,1.0,0.5808914303779602,-0.0019077181350439787,0.2059297412633896,0.06799688190221786,0.04002078250050545,0.41031980514526367,-0.3336247503757477,-0.9505161643028259,4.587946891784668,1.4804834127426147,-10.97488784790039,0.4890802800655365,48950.0,48175.0,50022.0,44114.0,0.6,0.0,0.5,-0.43613260984420776,0.5909449458122253,0.22113646566867828,0.0930166020989418,0.037306033074855804,0.4548726975917816,-1.6181836128234863,2.1456737518310547,4.197558403015137,-0.022271960973739624,-20.364505767822266,-7.208950042724609,48681.0,49175.0,49777.0,44642.0,-0.3000025448675481,0.51961377298239,0.5,-0.3480786979198456,-0.5674764513969421,0.22923427820205688,-0.11139567941427231,0.00593942916020751,0.4224579334259033,0.32526513934135437,0.8139130473136902,2.5630645751953125,4.9893693923950195,15.789631843566895,-1.8980554342269897,53275.0,49149.0,50930.0,50620.0,-0.29999491024331576,-0.5196181808098181,0.5
1.547,TAKEOFF,intermittent,1.0,0.5808914303779602,-0.0019077181350439787,0.2059297412633896,0.07027257978916168,0.041221633553504944,0.4070088863372803,-0.31809869408607483,-0.7502207159996033,4.582266807556152,5.572170257568359,-9.616153717041016,0.6717287302017212,48567.0,48615.0,50144.0,43293.0,0.6,0.0,0.5,-0.43613260984420776,0.5909449458122253,0.22113646566867828,0.0970267802476883,0.025617368519306183,0.44466114044189453,-1.4297703504562378,2.359395742416382,4.042352676391602,2.4458606243133545,-1.2485980987548828,-6.705571174621582,49941.0,47305.0,48937.0,45586.0,-0.3000025448675481,0.51961377298239,0.5,-0.3480786979198456,-0.5674764513969421,0.22923427820205688,-0.07889996469020844,-0.01256593782454729,0.4315203130245209,0.5075689554214478,-0.00028969801496714354,2.5434844493865967,-1.7538572549819946,12.551335334777832,-0.23194052278995514,53458.0,48840.0,50282.0,50174.0,-0.29999491024331576,-0.5196181808098181,0.5
1.569,TAKEOFF,intermittent,1.0,0.5808914303779602,-0.0019077181350439787,0.2059297412633896,0.07027257978916168,0.041221633553504944,0.4070088863372803,-0.2406160533428192,-0.5610584616661072,4.597512722015381,4.2879319190979,-9.94703483581543,-0.005245755426585674,48835.0,47963.0,49653.0,43857.0,0.6,0.0,0.5,-0.43613260984420776,0.5909449458122253,0.22113646566867828,0.07630697637796402,0.0359436571598053,0.4499823749065399,-1.3591902256011963,2.4531078338623047,3.889894962310791,5.074180603027344,11.442306518554688,-6.368314743041992,49368.0,47041.0,48766.0,45773.0,-0.3000025448675481,0.51961377298239,0.5,-0.3480786979198456,-0.5674764513969421,0.22923427820205688,-0.08795535564422607,-0.005903526209294796,0.4212684631347656,0.5075689554214478,-0.00028969801496714354,2.5434844493865967,-1.7538572549819946,12.551335334777832,-0.23194052278995514,53458.0,48840.0,50282.0,50174.0,-0.29999491024331576,-0.5196181808098181,0.5
1.587,TAKEOFF,intermittent,1.0,0.5808914303779602,-0.0019077181350439787,0.2059297412633896,0.06245451420545578,0.036047711968421936,0.4071703553199768,-0.10117373615503311,-0.30907729268074036,4.583478927612305,4.701571464538574,-8.10545539855957,0.6540341377258301,48557.0,48103.0,49627.0,43599.0,0.6,0.0,0.5,-0.43613260984420776,0.5909449458122253,0.22113646566867828,0.06356385350227356,0.042833659797906876,0.4508964419364929,-1.2146397829055786,2.2633907794952393,3.7291345596313477,7.084360122680664,18.300491333007812,-7.091681003570557,49368.0,47041.0,48766.0,45773.0,-0.3000025448675481,0.51961377298239,0.5,-0.3480786979198456,-0.5674764513969421,0.22923427820205688,-0.0905969962477684,-0.005028309766203165,0.4171380400657654,0.4554128646850586,-0.20406103134155273,2.5433781147003174,-4.626307964324951,6.704357624053955,0.3809552788734436,52972.0,49046.0,50691.0,49644.0,-0.29999491024331576,-0.5196181808098181,0.5
1.607,TAKEOFF,intermittent,1.0,0.5901466012001038,0.0003685704432427883,0.24905499815940857,0.07983234524726868,0.0258602574467659,0.41104400157928467,0.12041253596544266,-0.2752174437046051,4.504452705383301,5.011200904846191,-4.902909755706787,-0.12053276598453522,48413.0,47718.0,49623.0,43520.0,0.6,0.0,0.5,-0.4280177354812622,0.5938610434532166,0.2660999298095703,0.05650978535413742,0.045978426933288574,0.447372168302536,-1.0042601823806763,1.9656463861465454,3.575744152069092,6.992687225341797,16.64373016357422,-6.141109466552734,49133.0,47496.0,48612.0,44991.0,-0.3000025448675481,0.51961377298239,0.5,-0.3480786979198456,-0.5674764513969421,0.22923427820205688,-0.0895303338766098,-0.006264250725507736,0.41610828042030334,0.3455542325973511,-0.31453078985214233,2.5555968284606934,-3.5143158435821533,3.1710867881774902,-0.09851933270692825,52084.0,48314.0,51363.0,50053.0,-0.29999491024331576,-0.5196181808098181,0.5
1.627,TAKEOFF,intermittent,1.0,0.5901466012001038,0.0003685704432427883,0.24905499815940857,0.07297675311565399,0.044520094990730286,0.4018130302429199,0.08526882529258728,-0.12333738803863525,4.5742669105529785,4.749192237854004,-2.070744276046753,-0.19158326089382172,48442.0,48010.0,49392.0,42940.0,0.6,0.0,0.5,-0.4280177354812622,0.5938610434532166,0.2660999298095703,0.050402916967868805,0.04845784977078438,0.44532668590545654,-0.5430583953857422,1.5253671407699585,3.298220157623291,14.262581825256348,8.602774620056152,-5.143032550811768,49542.0,47874.0,47852.0,43770.0,-0.3000025448675481,0.51961377298239,0.5,-0.3558017611503601,-0.5674201846122742,0.2709949016571045,-0.0883493646979332,-0.007136073894798756,0.41233542561531067,0.2546297609806061,-0.34645146131515503,2.5593912601470947,-4.255256652832031,1.0898081064224243,0.031944066286087036,52084.0,48314.0,51363.0,50053.0,-0.29999491024331576,-0.5196181808098181,0.5
1.647,TAKEOFF,intermittent,1.0,0.5901466012001038,0.0003685704432427883,0.24905499815940857,0.07297675311565399,0.044520094990730286,0.4018130302429199,0.19029365479946136,-0.03649325668811798,4.572662830352783,5.623683452606201,-6.626039028167725,-0.7532637715339661,49055.0,47385.0,48785.0,43514.0,0.6,0.0,0.5,-0.4280177354812622,0.5938610434532166,0.2660999298095703,0.04500533267855644,0.05018634349107742,0.4438554644584656,-0.5430583953857422,1.5253671407699585,3.298220157623291,14.262581825256348,8.602774620056152,-5.143032550811768,48940.0,49718.0,47871.0,41359.0,-0.3000025448675481,0.51961377298239,0.5,-0.3558017611503601,-0.5674201846122742,0.2709949016571045,-0.08101696521043777,-0.01148576382547617,0.3971361219882965,0.2029210925102234,-0.3557850122451782,2.5635273456573486,-2.9851810932159424,0.13725511729717255,-0.06082598865032196,52641.0,48982.0,50681.0,49264.0,-0.29999491024331576,-0.5196181808098181,0.5
1.667,TAKEOFF,intermittent,1.0,0.5901466012001038,0.0003685704432427883,0.24905499815940857,0.06508991122245789,0.054679762572050095,0.3860325217247009,0.19613289833068848,0.14815708994865417,4.634468078613281,1.902287483215332,-4.492912292480469,-0.21963168680667877,48207.0,48128.0,49615.0,42406.0,0.6,0.0,0.5,-0.4280177354812622,0.5938610434532166,0.2660999298095703,0.04007960855960846,0.05093983933329582,0.44020336866378784,0.20459266006946564,1.1581604480743408,3.0414772033691406,6.49601411819458,-4.708526611328125,-5.440526485443115,49196.0,50041.0,47735.0,42658.0,-0.3000025448675481,0.51961377298239,0.5,-0.3558017611503601,-0.5674201846122742,0.2709949016571045,-0.066647008061409,-0.01716417260468006,0.39742445945739746,0.24511666595935822,-0.4923591613769531,2.575719118118286,-1.569257140159607,2.3439862728118896,0.6175345778465271,52888.0,48767.0,50152.0,49031.0,-0.29999491024331576,-0.5196181808098181,0.5
1.687,TAKEOFF,intermittent,1.0,0.5901466012001038,0.0003685704432427883,0.24905499815940857,0.08883703500032425,0.04094555601477623,0.38519251346588135,0.24758677184581757,0.3146970272064209,4.6227569580078125,4.723002910614014,-4.640039920806885,-0.41080427169799805,47818.0,48587.0,49847.0,42004.0,0.6,0.0,0.5,-0.4280177354812622,0.5938610434532166,0.2660999298095703,0.07841013371944427,0.027081968262791634,0.401496022939682,0.3338911831378937,1.252557396888733,2.931396484375,2.9713754653930664,-2.660583019256592,-5.005712032318115,49059.0,48061.0,48458.0,44145.0,-0.3000025448675481,0.51961377298239,0.5,-0.3558017611503601,-0.5674201846122742,0.2709949016571045,-0.06823761761188507,-0.01450486108660698,0.3909805119037628,0.17334452271461487,-0.5167132019996643,2.594869375228882,1.5968526601791382,4.781055450439453,0.5061628818511963,52930.0,47799.0,49920.0,49860.0,-0.29999491024331576,-0.5196181808098181,0.5
1.707,TAKEOFF,intermittent,1.0,0.598503053188324,0.00834350660443306,0.29252931475639343,0.08883703500032425,0.04094555601477623,0.38519251346588135,0.47550782561302185,0.2847452759742737,4.524251937866211,7.372738838195801,-8.10343074798584,-0.5603530406951904,48520.0,47729.0,48763.0,42936.0,0.6,0.0,0.5,-0.4151306748390198,0.5962573289871216,0.3060661256313324,0.07978697121143341,0.031754858791828156,0.40425586700439453,0.3338911831378937,1.252557396888733,2.931396484375,2.9713754653930664,-2.660583019256592,-5.005712032318115,48634.0,47975.0,48250.0,44020.0,-0.3000025448675481,0.51961377298239,0.5,-0.3558017611503601,-0.5674201846122742,0.2709949016571045,-0.066246896982193,-0.015030443668365479,0.3853317201137543,0.18641358613967896,-0.6195353269577026,2.6009926795959473,1.6600669622421265,5.492599964141846,0.49551522731781006,52286.0,49149.0,50562.0,48305.0,-0.29999491024331576,-0.5196181808098181,0.5
1.727,TAKEOFF,intermittent,1.0,0.598503053188324,0.00834350660443306,0.29252931475639343,0.08990660309791565,0.03165757656097412,0.3682495951652527,0.7771666646003723,0.484491229057312,4.39602518081665,7.7671003341674805,-2.011538505554199,0.13527683913707733,48042.0,47646.0,49286.0,42756.0,0.6,0.0,0.5,-0.4151306748390198,0.5962573289871216,0.3060661256313324,0.07146578282117844,0.028174705803394318,0.38772574067115784,0.2757715582847595,1.3177610635757446,2.6628031730651855,-6.36036491394043,-2.0226988792419434,-5.179651260375977,47922.0,47671.0,48713.0,44242.0,-0.3000025448675481,0.51961377298239,0.5,-0.36123350262641907,-0.5684964060783386,0.30827394127845764,-0.06177311763167381,-0.014050994999706745,0.3621915578842163,0.13060176372528076,-0.6737425923347473,2.588996410369873,-5.015396595001221,-1.5595616102218628,-0.7729153633117676,51789.0,48528.0,51007.0,49331.0,-0.29999491024331576,-0.5196181808098181,0.5
1.748,TAKEOFF,intermittent,1.0,0.598503053188324,0.00834350660443306,0.29252931475639343,0.08853065222501755,0.028948787599802017,0.35530292987823486,0.7771666646003723,0.484491229057312,4.39602518081665,7.7671003341674805,-2.011538505554199,0.13527683913707733,48042.0,47646.0,49286.0,42756.0,0.6,0.0,0.5,-0.4151306748390198,0.5962573289871216,0.3060661256313324,0.07146578282117844,0.028174705803394318,0.38772574067115784,0.2757715582847595,1.3177610635757446,2.6628031730651855,-6.36036491394043,-2.0226988792419434,-5.179651260375977,47749.0,47270.0,48783.0,44751.0,-0.3000025448675481,0.51961377298239,0.5,-0.36123350262641907,-0.5684964060783386,0.30827394127845764,-0.06177311763167381,-0.014050994999706745,0.3621915578842163,0.13060176372528076,-0.6737425923347473,2.588996410369873,-5.015396595001221,-1.5595616102218628,-0.7729153633117676,52252.0,49043.0,50552.0,48609.0,-0.29999491024331576,-0.5196181808098181,0.5
1.769,TAKEOFF,intermittent,1.0,0.598503053188324,0.00834350660443306,0.29252931475639343,0.08778978139162064,0.027466852217912674,0.34881213307380676,0.8901042342185974,0.5369539856910706,4.3849921226501465,4.119828701019287,-6.0401811599731445,-0.3720078468322754,48177.0,48024.0,49214.0,42339.0,0.6,0.0,0.5,-0.4151306748390198,0.5962573289871216,0.3060661256313324,0.058548565953969955,0.031910140067338943,0.37924259901046753,0.14368847012519836,1.4323245286941528,2.617009162902832,-9.328518867492676,-0.6652102470397949,-5.417834758758545,47720.0,47229.0,48614.0,44925.0,-0.3000025448675481,0.51961377298239,0.5,-0.36123350262641907,-0.5684964060783386,0.30827394127845764,-0.05047709122300148,-0.019001279026269913,0.3556128144264221,0.08017991483211517,-0.704766035079956,2.585378646850586,-3.173541307449341,-3.481210708618164,-0.46118441224098206,51743.0,48271.0,50917.0,49352.0,-0.29999491024331576,-0.5196181808098181,0.5
1.787,TAKEOFF,intermittent,1.0,0.598503053188324,0.00834350660443306,0.29252931475639343,0.08603332191705704,0.024413026869297028,0.3370232880115509,0.8941417336463928,0.6440111398696899,4.373202323913574,-3.863532304763794,-5.449595928192139,-0.6031396389007568,47774.0,47604.0,49732.0,42814.0,0.6,0.0,0.5,-0.4151306748390198,0.5962573289871216,0.3060661256313324,0.04885231330990791,0.03672823682427406,0.37471696734428406,-0.2561512887477875,1.434541940689087,2.439754009246826,-4.182014465332031,0.9576839208602905,-6.001655578613281,47652.0,47453.0,48617.0,44363.0,-0.3000025448675481,0.51961377298239,0.5,-0.36123350262641907,-0.5684964060783386,0.30827394127845764,-0.049325186759233475,-0.019542641937732697,0.3493298292160034,0.0006078600999899209,-0.6383318305015564,2.5729544162750244,-2.255760669708252,-3.405134916305542,-1.055733323097229,51863.0,48741.0,50706.0,48813.0,-0.29999491024331576,-0.5196181808098181,0.5
1.806,TAKEOFF,intermittent,1.0,0.6048032641410828,0.010757056064903736,0.3295382559299469,0.06862999498844147,0.019512096419930458,0.3330208659172058,0.7869483828544617,0.7649341225624084,4.365190029144287,-6.121151924133301,-2.820488691329956,-0.7486909031867981,47087.0,47900.0,48784.0,44716.0,0.6,0.0,0.5,-0.4121140241622925,0.6018315553665161,0.34455323219299316,0.046266209334135056,0.03530634194612503,0.36106422543525696,-0.30035534501075745,1.3642431497573853,2.2761545181274414,-1.7776929140090942,-2.831420421600342,-4.85536527633667,47313.0,47434.0,48974.0,44497.0,-0.3000025448675481,0.51961377298239,0.5,-0.36123350262641907,-0.5684964060783386,0.30827394127845764,-0.03683963045477867,-0.02647010050714016,0.3451439142227173,0.02107483707368374,-0.6491346955299377,2.5310444831848145,-2.5816633701324463,-3.83809232711792,-0.92917799949646,52345.0,48581.0,50021.0,48805.0,-0.29999491024331576,-0.5196181808098181,0.5
1.827,TAKEOFF,intermittent,1.0,0.6048032641410828,0.010757056064903736,0.3295382559299469,0.06576071679592133,0.01704227551817894,0.3211759626865387,0.6581224203109741,0.98098224401474,4.2459492683410645,-6.535982608795166,-5.615753650665283,0.09500249475240707,47490.0,47787.0,49839.0,42562.0,0.6,0.0,0.5,-0.4121140241622925,0.6018315553665161,0.34455323219299316,0.041812650859355927,0.03613768145442009,0.34929272532463074,-0.30035534501075745,1.3642431497573853,2.2761545181274414,-1.7776929140090942,-2.831420421600342,-4.85536527633667,48084.0,47089.0,48244.0,44921.0,-0.3000025448675481,0.51961377298239,0.5,-0.3593516945838928,-0.5738430023193359,0.34575942158699036,-0.03177057206630707,-0.02552066557109356,0.3434905409812927,0.0007130898302420974,-0.6067467927932739,2.50358510017395,-2.157231569290161,-3.1855154037475586,-1.3553067445755005,51850.0,48037.0,50287.0,49081.0,-0.29999491024331576,-0.5196181808098181,0.5
1.847,TAKEOFF,intermittent,1.0,0.6048032641410828,0.010757056064903736,0.3295382559299469,0.06576071679592133,0.01704227551817894,0.3211759626865387,0.5345903635025024,1.127885341644287,4.2442240715026855,-8.508649826049805,-9.808813095092773,1.133875846862793,47798.0,47541.0,49639.0,42987.0,-0.5999906018736675,0.0033582232317429816,0.5,-0.4121140241622925,0.6018315553665161,0.34455323219299316,0.03721381723880768,0.0370127335190773,0.3423432409763336,-0.2268257886171341,1.3387266397476196,2.0794224739074707,8.395915985107422,0.32244399189949036,-4.411391258239746,48241.0,48276.0,47928.0,43519.0,0.29853847969803465,-0.5204563153037786,0.5,-0.3593516945838928,-0.5738430023193359,0.34575942158699036,-0.029992325231432915,-0.025241510942578316,0.33397793769836426,-0.07877827435731888,-0.5301437973976135,2.461913585662842,-3.671341896057129,-2.2832589149475098,-0.8008448481559753,51987.0,47768.0,50164.0,49256.0,0.3000123530109298,0.519608110060693,0.5
1.869,TAKEOFF,intermittent,1.0,0.6048032641410828,0.010757056064903736,0.3295382559299469,0.06242959201335907,0.014956682920455933,0.30874958634376526,0.43617162108421326,1.2541457414627075,4.246222972869873,-4.147303581237793,-3.5411813259124756,-0.008087369613349438,48301.0,47989.0,49274.0,42500.0,0.6,0.0,0.5,-0.4121140241622925,0.6018315553665161,0.34455323219299316,0.032742779701948166,0.03619089350104332,0.3258453607559204,-0.2268257886171341,1.3387266397476196,2.0794224739074707,8.395915985107422,0.32244399189949036,-4.411391258239746,48437.0,48465.0,47863.0,43510.0,-0.3000025448675481,0.51961377298239,0.5,-0.3593516945838928,-0.5738430023193359,0.34575942158699036,-0.02644309028983116,-0.02556716650724411,0.32256555557250977,-0.1432126760482788,-0.4799617826938629,2.4390709400177,-5.761866569519043,-1.697316288948059,-0.040737032890319824,51506.0,48137.0,50723.0,48933.0,-0.29999491024331576,-0.5196181808098181,0.5
1.888,TAKEOFF,intermittent,1.0,0.6048032641410828,0.010757056064903736,0.3295382559299469,0.05860760435461998,0.01319240964949131,0.2962433993816376,0.3078669011592865,1.2910720109939575,4.241969108581543,-4.961588382720947,1.7513620853424072,-0.5685703754425049,49209.0,47913.0,48451.0,42903.0,0.6,0.0,0.5,-0.4121140241622925,0.6018315553665161,0.34455323219299316,0.009283410385251045,0.05173618718981743,0.31998908519744873,-0.06837036460638046,1.468077301979065,1.9524741172790527,8.811225891113281,0.37197235226631165,-3.6471376419067383,48029.0,48669.0,48209.0,43100.0,-0.3000025448675481,0.51961377298239,0.5,-0.3593516945838928,-0.5738430023193359,0.34575942158699036,-0.025020480155944824,-0.024791918694972992,0.3135488033294678,-0.2426038533449173,-0.4311103820800781,2.4330508708953857,-6.455774307250977,-5.568267345428467,-0.287594735622406,51506.0,48137.0,50723.0,48933.0,-0.29999491024331576,-0.5196181808098181,0.5
1.908,TAKEOFF,intermittent,1.0,0.6027443408966064,0.005215703509747982,0.3589196503162384,0.05463293194770813,0.0117845069617033,0.2814937233924866,0.2566981315612793,1.254551887512207,4.230134010314941,-2.169708728790283,2.181765556335449,-0.8340728282928467,48459.0,48447.0,49396.0,42153.0,-0.5998861302575573,-0.011688914603717262,0.5,-0.4132225513458252,0.6083195805549622,0.37765857577323914,0.004587346222251654,0.05135677754878998,0.3114313781261444,0.12364845722913742,1.4331154823303223,1.8802993297576904,10.650003433227539,-0.7880733609199524,-4.511083602905273,48029.0,48669.0,48209.0,43100.0,0.3114961794894065,-0.5128061331180658,0.5,-0.3593516945838928,-0.5738430023193359,0.34575942158699036,-0.024683810770511627,-0.021642539650201797,0.3020169138908386,-0.3822054862976074,-0.33647045493125916,2.4339232444763184,-6.488028049468994,-5.619332313537598,-0.4378054738044739,51586.0,47995.0,50618.0,49060.0,0.28688769017311705,0.5269681709810694,0.5
1.927,TAKEOFF,intermittent,1.0,0.6027443408966064,0.005215703509747982,0.3589196503162384,0.008712833747267723,-0.017645983025431633,0.2729576528072357,0.3710843026638031,1.5361011028289795,4.217483997344971,-3.27946138381958,1.1288830041885376,-0.9815353155136108,47764.0,48508.0,49979.0,42069.0,-0.5997674502664777,-0.016703460744652787,0.5,-0.4132225513458252,0.6083195805549622,0.37765857577323914,3.019062933162786e-05,0.050381291657686234,0.3010269105434418,0.3022930324077606,1.3924435377120972,1.798712968826294,8.84706974029541,4.673383712768555,-3.687316656112671,48211.0,48095.0,47995.0,43892.0,0.31577227392192303,-0.5101841540288937,0.5,-0.3681727647781372,-0.571160614490509,0.3765470087528229,-0.061805885285139084,0.017502060160040855,0.28785473108291626,-0.8390936851501465,0.014141900464892387,2.4372129440307617,-4.547185897827148,-5.8297905921936035,-0.4952974021434784,51528.0,48102.0,50730.0,49061.0,0.2824722933194895,0.5293480929471913,0.5
1.947,TAKEOFF,intermittent,1.0,0.6027443408966064,0.005215703509747982,0.3589196503162384,-0.00014460654347203672,-0.017345042899250984,0.26663780212402344,0.2800523340702057,1.4568372964859009,4.187620162963867,-6.220088958740234,8.123942375183105,0.35242918133735657,47713.0,47815.0,50082.0,42954.0,0.6,0.0,0.5,-0.4132225513458252,0.6083195805549622,0.37765857577323914,0.020723704248666763,0.030461030080914497,0.2682253122329712,0.3997693955898285,1.3458669185638428,1.760837197303772,8.433732032775879,6.325613498687744,-4.188663959503174,47610.0,47960.0,48471.0,44235.0,-0.3000025448675481,0.51961377298239,0.5,-0.3681727647781372,-0.571160614490509,0.3765470087528229,-0.06614511460065842,0.023823998868465424,0.27893179655075073,-0.9116742014884949,0.19890093803405762,2.407810926437378,-2.195262908935547,-4.250529766082764,-0.8176756501197815,51001.0,49001.0,51188.0,48523.0,-0.29999491024331576,-0.5196181808098181,0.5
1.97,TAKEOFF,intermittent,1.0,0.6027443408966064,0.005215703509747982,0.3589196503162384,-0.012252706103026867,-0.0005289247492328286,0.2528318762779236,0.01075760368257761,1.3169244527816772,4.2322096824646,-8.796189308166504,11.740659713745117,-0.36900708079338074,47713.0,47815.0,50082.0,42954.0,0.6,0.0,0.5,-0.4132225513458252,0.6083195805549622,0.37765857577323914,0.017457688227295876,0.027934355661273003,0.2571127712726593,0.7229740619659424,1.060381531715393,1.6481989622116089,7.218642711639404,5.717827796936035,-3.1193783283233643,47610.0,47960.0,48471.0,44235.0,-0.3000025448675481,0.51961377298239,0.5,-0.3681727647781372,-0.571160614490509,0.3765470087528229,-0.06615500897169113,0.023218777030706406,0.2656227946281433,-0.9343708157539368,0.2637917399406433,2.390604019165039,1.6796048879623413,1.5176836252212524,-0.8931296467781067,51228.0,48615.0,51007.0,48901.0,-0.29999491024331576,-0.5196181808098181,0.5
1.988,TAKEOFF,intermittent,1.0,0.6027443408966064,0.005215703509747982,0.3589196503162384,-0.015866434201598167,0.0005520599661394954,0.2417875975370407,-0.1729196012020111,1.0425292253494263,4.218310356140137,-9.382675170898438,15.729068756103516,-0.8476173877716064,47928.0,47117.0,50199.0,44375.0,-0.5991599580527136,-0.031738693518645056,0.5,-0.4132225513458252,0.6083195805549622,0.37765857577323914,-0.0007384574273601174,0.027557609602808952,0.2447168081998825,0.7742225527763367,1.1170419454574585,1.611295223236084,4.634801387786865,11.012266159057617,-3.86759352684021,49020.0,47392.0,47757.0,45756.0,0.32846695699126205,-0.5021050270261197,0.5,-0.3681727647781372,-0.571160614490509,0.3765470087528229,-0.06507913768291473,0.02396586537361145,0.25234538316726685,-0.847133457660675,0.19479435682296753,2.361199140548706,8.26995849609375,7.441508769989014,-1.4101059436798096,52021.0,48658.0,50221.0,49167.0,0.26910889506353075,0.5362652353058938,0.5
2.007,TAKEOFF,intermittent,1.0,0.6027443408966064,0.005215703509747982,0.3589196503162384,-0.018552003428339958,0.0040390146896243095,0.2395516037940979,-0.4203011691570282,0.7274348139762878,4.255931377410889,-10.121992111206055,15.5597562789917,-1.8044079542160034,47928.0,47117.0,50199.0,44375.0,0.6,0.0,0.5,-0.4132225513458252,0.6083195805549622,0.37765857577323914,-0.0007384574273601174,0.027557609602808952,0.2447168081998825,0.9631173610687256,0.832006573677063,1.4815675020217896,0.5310452580451965,5.259154796600342,-3.468691110610962,47947.0,48690.0,48631.0,44092.0,-0.3000025448675481,0.51961377298239,0.5,-0.3681727647781372,-0.571160614490509,0.3765470087528229,-0.06323663145303726,0.024871166795492172,0.24091149866580963,-0.6539408564567566,-0.015478711575269699,2.3101162910461426,11.563151359558105,16.96076011657715,-1.6587547063827515,51957.0,48331.0,50308.0,49816.0,-0.29999491024331576,-0.5196181808098181,0.5
2.03,TAKEOFF,intermittent,1.0,0.6002042889595032,0.009945605881512165,0.38488882780075073,-0.0212443545460701,0.005000362638384104,0.22784070670604706,-0.6050616502761841,0.38855910301208496,4.228334426879883,-7.613927841186523,18.735977172851562,0.2538551092147827,48396.0,47185.0,49749.0,44145.0,0.6,0.0,0.5,-0.4105074107646942,0.6100744009017944,0.40142273902893066,-0.0028879516758024693,0.023468362167477608,0.23228466510772705,0.9620968699455261,0.6743015050888062,1.3886315822601318,-1.701672077178955,5.10892391204834,-3.586926221847534,48335.0,47729.0,48542.0,45657.0,-0.3000025448675481,0.51961377298239,0.5,-0.36916524171829224,-0.5728136897087097,0.40330520272254944,-0.06323663145303726,0.024871166795492172,0.24091149866580963,-0.29637572169303894,-0.5341483950614929,2.3023383617401123,15.050945281982422,15.197810173034668,-1.0756889581680298,53324.0,49254.0,48967.0,48974.0,-0.29999491024331576,-0.5196181808098181,0.5
2.049,TAKEOFF,intermittent,1.0,0.6002042889595032,0.009945605881512165,0.38488882780075073,-0.002170748542994261,-0.0022283580619841814,0.22665292024612427,-0.6233813762664795,-0.1810562163591385,4.173227787017822,-0.09550672769546509,21.230894088745117,-2.10567307472229,48923.0,46760.0,49182.0,44609.0,0.6,0.0,0.5,-0.4105074107646942,0.6100744009017944,0.40142273902893066,-0.010949917137622833,0.0223882794380188,0.2264314442873001,0.8447953462600708,0.6807230710983276,1.3576269149780273,-3.9601311683654785,4.268881797790527,-4.986093521118164,48403.0,48318.0,48338.0,45158.0,-0.3000025448675481,0.51961377298239,0.5,-0.36916524171829224,-0.5728136897087097,0.40330520272254944,-0.01933772675693035,0.01235863845795393,0.24046547710895538,0.024967769160866737,-0.896315336227417,2.281282424926758,13.468090057373047,12.457640647888184,-2.018935203552246,53207.0,48291.0,48441.0,49616.0,-0.29999491024331576,-0.5196181808098181,0.5
2.068,TAKEOFF,intermittent,1.0,0.6002042889595032,0.009945605881512165,0.38488882780075073,-0.0007481280481442809,0.0019640966784209013,0.20821306109428406,-0.608281672000885,-0.5648135542869568,4.142477989196777,2.733015537261963,14.534912109375,-0.6393590569496155,48882.0,48603.0,49254.0,42537.0,-0.5977638568426655,-0.051752984963007335,0.5,-0.4105074107646942,0.6100744009017944,0.40142273902893066,-0.01934944838285446,0.023240109905600548,0.2270539253950119,0.62983238697052,0.4553481936454773,1.1706384420394897,-8.052452087402344,10.504556655883789,-5.9343390464782715,48253.0,47946.0,48133.0,45626.0,0.3450704710624056,-0.49084251038471544,0.5,-0.36916524171829224,-0.5728136897087097,0.40330520272254944,-0.022158492356538773,0.020075131207704544,0.22951263189315796,0.21448937058448792,-1.0348267555236816,2.274202823638916,8.033831596374512,3.415396213531494,-2.573664665222168,51869.0,48937.0,50490.0,48718.0,0.2510292055901964,0.5449626940816727,0.5
2.091,TAKEOFF,intermittent,1.0,0.6002042889595032,0.009945605881512165,0.38488882780075073,0.0015140027971938252,0.003893989836797118,0.19927825033664703,-0.4687807261943817,-0.806242823600769,4.065633296966553,5.6403489112854,-1.3977091312408447,-1.0558449029922485,48299.0,49255.0,49873.0,41792.0,0.6,0.0,0.5,-0.4105074107646942,0.6100744009017944,0.40142273902893066,-0.024020282551646233,0.024433590471744537,0.2260507047176361,0.4684699475765228,0.2554231286048889,1.0630152225494385,-7.085287570953369,11.545116424560547,-5.809914588928223,47679.0,47517.0,48505.0,46024.0,-0.3000025448675481,0.51961377298239,0.5,-0.36916524171829224,-0.5728136897087097,0.40330520272254944,-0.02526651881635189,0.024136800318956375,0.21582022309303284,0.4054744839668274,-0.8163983225822449,2.1838808059692383,-0.698026716709137,-11.446392059326172,-1.8514785766601562,52077.0,48401.0,50537.0,49484.0,-0.29999491024331576,-0.5196181808098181,0.5
2.107,TAKEOFF,intermittent,1.0,0.6035107374191284,0.009049525484442711,0.4103125035762787,0.0015140027971938252,0.003893989836797118,0.19927825033664703,-0.4687807261943817,-0.806242823600769,4.065633296966553,5.6403489112854,-1.3977091312408447,-1.0558449029922485,48037.0,48347.0,49984.0,42425.0,0.6,0.0,0.5,-0.41322579979896545,0.6129999756813049,0.42369362711906433,-0.008927910588681698,0.009929992258548737,0.20683273673057556,0.44477739930152893,-0.11360836774110794,0.9255781769752502,-7.107722759246826,13.815258979797363,-6.105006217956543,47714.0,47988.0,48334.0,45621.0,-0.3000025448675481,0.51961377298239,0.5,-0.36916524171829224,-0.5728136897087097,0.40330520272254944,-0.011220849119126797,0.014615362510085106,0.21095968782901764,0.4207310378551483,-0.6138659715652466,2.1437325477600098,-4.30620002746582,-15.317826271057129,-2.3469762802124023,51509.0,49022.0,51015.0,48998.0,-0.29999491024331576,-0.5196181808098181,0.5
2.127,TAKEOFF,intermittent,1.0,0.6035107374191284,0.009049525484442711,0.4103125035762787,-0.003089635167270899,0.01086657214909792,0.204867884516716,-0.46529993414878845,-0.7758017182350159,4.11533260345459,3.17030668258667,-4.892134189605713,-0.16494858264923096,48037.0,48347.0,49984.0,42425.0,-0.5962780509460479,-0.06672695077689551,0.5,-0.41322579979896545,0.6129999756813049,0.42369362711906433,0.0007176668150350451,0.003718881867825985,0.19396354258060455,0.44477739930152893,-0.11360836774110794,0.9255781769752502,-7.107722759246826,13.815258979797363,-6.105006217956543,47714.0,47988.0,48334.0,45621.0,0.35727090618412133,-0.482034749363961,0.5,-0.3696639835834503,-0.572310209274292,0.42567235231399536,-0.008867421187460423,0.013247856870293617,0.20344609022140503,0.4207310378551483,-0.6138659715652466,2.1437325477600098,-4.30620002746582,-15.317826271057129,-2.3469762802124023,51509.0,49022.0,51015.0,48998.0,0.23728412522123082,0.5510864214603688,0.5
2.149,TAKEOFF,intermittent,1.0,0.6035107374191284,0.009049525484442711,0.4103125035762787,-0.004384039435535669,0.02187913842499256,0.20462000370025635,-0.42584913969039917,-0.6729511618614197,4.115130424499512,2.36354398727417,-5.455316543579102,-0.22096438705921173,47546.0,48194.0,50348.0,42389.0,0.6,0.0,0.5,-0.41322579979896545,0.6129999756813049,0.42369362711906433,-0.011783266440033913,0.009045065380632877,0.1970462203025818,0.30816274881362915,-0.3615013659000397,0.8416808247566223,-0.5563837885856628,11.651971817016602,-4.513242244720459,49399.0,48300.0,47284.0,45830.0,-0.3000025448675481,0.51961377298239,0.5,-0.3696639835834503,-0.572310209274292,0.42567235231399536,-0.01686078868806362,0.0214602779597044,0.19032418727874756,0.19315272569656372,-0.18908268213272095,2.1088449954986572,-4.622957229614258,-13.995585441589355,-2.468519449234009,51424.0,48823.0,51174.0,49297.0,-0.29999491024331576,-0.5196181808098181,0.5
2.167,TAKEOFF,intermittent,1.0,0.6035107374191284,0.009049525484442711,0.4103125035762787,-0.002190668834373355,0.02346985787153244,0.19683869183063507,-0.42584913969039917,-0.6729511618614197,4.115130424499512,2.36354398727417,-5.455316543579102,-0.22096438705921173,47835.0,47722.0,50149.0,43073.0,0.6,0.0,0.5,-0.41322579979896545,0.6129999756813049,0.42369362711906433,-0.011783266440033913,0.009045065380632877,0.1970462203025818,0.23770363628864288,-0.5273892879486084,0.7900904417037964,2.18243145942688,5.6956095695495605,-4.33590841293335,48422.0,48701.0,48078.0,45146.0,-0.3000025448675481,0.51961377298239,0.5,-0.3696639835834503,-0.572310209274292,0.42567235231399536,-0.01686078868806362,0.0214602779597044,0.19032418727874756,0.12816967070102692,0.0630226582288742,2.0621142387390137,-1.5634429454803467,-9.732271194458008,-1.7044057846069336,52112.0,49254.0,50708.0,49119.0,-0.29999491024331576,-0.5196181808098181,0.5
2.187,TAKEOFF,intermittent,1.0,0.6035107374191284,0.009049525484442711,0.4103125035762787,-0.000314533244818449,0.024793125689029694,0.1864219307899475,-0.26870203018188477,-0.5657093524932861,4.101419448852539,4.199237823486328,-0.9956050515174866,-0.5816991925239563,48957.0,47610.0,48766.0,43258.0,-0.5944172072381906,-0.08165894769803245,0.5,-0.41322579979896545,0.6129999756813049,0.42369362711906433,-0.014848518185317516,0.012989996932446957,0.1870628446340561,0.2744039297103882,-0.6543292999267578,0.7010351419448853,0.9458464980125427,2.951169490814209,-4.533653259277344,48315.0,48722.0,48049.0,44868.0,0.3692466305379959,-0.4729238055293228,0.5,-0.3696639835834503,-0.572310209274292,0.42567235231399536,-0.005032635759562254,0.012372739613056183,0.17754465341567993,0.11378438025712967,0.19893653690814972,2.038541555404663,-0.857947587966919,0.41864073276519775,-0.22555135190486908,51947.0,47978.0,51223.0,50351.0,0.22338980152723634,0.5568635349649157,0.5
2.207,TAKEOFF,intermittent,1.0,0.609706461429596,0.007697987835854292,0.4345178008079529,0.03121892176568508,0.008964953012764454,0.19045086205005646,0.031201960518956184,-0.7817135453224182,3.9844658374786377,5.6253275871276855,3.088247299194336,0.012967080809175968,48957.0,47610.0,48766.0,43258.0,0.6,0.0,0.5,-0.41322579979896545,0.6129999756813049,0.42369362711906433,-0.001079509500414133,0.021129867061972618,0.165742889046669,0.29259592294692993,-0.7030534148216248,0.6175280809402466,3.1936912536621094,-0.5758267641067505,-3.7168569564819336,48434.0,48953.0,47989.0,44699.0,-0.3000025448675481,0.51961377298239,0.5,-0.3696639835834503,-0.572310209274292,0.42567235231399536,-0.005823295097798109,0.015111280605196953,0.16798679530620575,0.19498351216316223,0.07572164386510849,2.0461182594299316,4.107590675354004,5.2555108070373535,-0.5740781426429749,52944.0,49012.0,50212.0,49195.0,-0.29999491024331576,-0.5196181808098181,0.5
2.227,TAKEOFF,intermittent,1.0,0.609706461429596,0.007697987835854292,0.4345178008079529,0.031554993242025375,0.004487337078899145,0.1872783750295639,0.15938428044319153,-0.8282184600830078,3.857128381729126,4.678216934204102,2.1243960857391357,-2.3010191917419434,48801.0,47543.0,48812.0,43334.0,0.6,0.0,0.5,-0.41482987999916077,0.6174482107162476,0.44225946068763733,0.018332483246922493,0.005636921618133783,0.14872239530086517,0.2563265860080719,-0.7842364311218262,0.5130635499954224,-0.5254307985305786,-2.5502922534942627,-2.8270397186279297,48128.0,48151.0,49007.0,46467.0,-0.3000025448675481,0.51961377298239,0.5,-0.37027299404144287,-0.5703427195549011,0.44073307514190674,-0.005407791584730148,0.014135273173451424,0.16314978897571564,0.3149140775203705,-0.1628425121307373,2.059051275253296,3.2438676357269287,10.377819061279297,0.09360571205615997,53335.0,47662.0,49859.0,50645.0,-0.29999491024331576,-0.5196181808098181,0.5
2.246,TAKEOFF,intermittent,1.0,0.609706461429596,0.007697987835854292,0.4345178008079529,0.03401569649577141,0.0033565873745828867,0.18123185634613037,0.2242192178964615,-0.8574171662330627,3.7516767978668213,3.479585647583008,0.04574715718626976,-1.9657179117202759,48801.0,47543.0,48812.0,43334.0,0.6,0.0,0.5,-0.41482987999916077,0.6174482107162476,0.44225946068763733,0.01079206820577383,0.01188402809202671,0.1439795196056366,0.2796132564544678,-0.7673546671867371,0.41087010502815247,-1.188772439956665,-1.0086978673934937,-3.252927780151367,48128.0,48151.0,49007.0,46467.0,-0.3000025448675481,0.51961377298239,0.5,-0.37027299404144287,-0.5703427195549011,0.44073307514190674,-0.004378065466880798,0.012970272451639175,0.15653401613235474,0.3769761323928833,-0.34325090050697327,2.0654499530792236,2.7313597202301025,8.271759033203125,0.8250786662101746,52886.0,49170.0,50597.0,49172.0,-0.29999491024331576,-0.5196181808098181,0.5
2.267,TAKEOFF,intermittent,1.0,0.609706461429596,0.007697987835854292,0.4345178008079529,0.03698898106813431,0.0030601071193814278,0.17228512465953827,0.13336871564388275,-0.7653844952583313,3.74088978767395,-7.950905799865723,-6.0705742835998535,-0.6970595717430115,47890.0,47081.0,49714.0,44029.0,0.6,0.0,0.5,-0.41482987999916077,0.6174482107162476,0.44225946068763733,0.01093163713812828,0.018239270895719528,0.13561969995498657,0.24159538745880127,-0.6848369240760803,0.407976895570755,2.0498955249786377,-4.70553731918335,-2.6605241298675537,48865.0,49573.0,48352.0,44925.0,-0.3000025448675481,0.51961377298239,0.5,-0.37027299404144287,-0.5703427195549011,0.44073307514190674,0.018557174131274223,-0.008235780522227287,0.1598474383354187,0.43557220697402954,-0.4080108404159546,2.0779354572296143,2.313704252243042,-1.0845752954483032,0.7118812203407288,52886.0,49170.0,50597.0,49172.0,-0.29999491024331576,-0.5196181808098181,0.5
2.288,TAKEOFF,intermittent,1.0,0.609706461429596,0.007697987835854292,0.4345178008079529,0.038247186690568924,0.008741429075598717,0.1612895131111145,-0.0029391483403742313,-0.5911368727684021,3.752662420272827,-4.75942325592041,-10.218480110168457,-1.3157539367675781,47964.0,47816.0,49757.0,43310.0,0.6,0.0,0.5,-0.41482987999916077,0.6174482107162476,0.44225946068763733,0.014304776675999165,0.017748013138771057,0.12308628857135773,0.2724760174751282,-0.6168030500411987,0.34850651025772095,4.179098606109619,-5.073760986328125,-1.9352014064788818,48722.0,48449.0,48668.0,46348.0,-0.3000025448675481,0.51961377298239,0.5,-0.37027299404144287,-0.5703427195549011,0.44073307514190674,0.010833456180989742,-0.023557094857096672,0.15333114564418793,0.6262589693069458,-0.5100170969963074,2.073831558227539,3.4349312782287598,-6.484880447387695,-0.27226150035858154,52341.0,49512.0,51141.0,48588.0,-0.29999491024331576,-0.5196181808098181,0.5
2.309,TAKEOFF,intermittent,1.0,0.609706461429596,0.007697987835854292,0.4345178008079529,0.03299687057733536,0.017442768439650536,0.1526220291852951,-0.14008258283138275,-0.40405401587486267,3.7926173210144043,-3.2391562461853027,-7.032175540924072,-1.351595401763916,49033.0,47116.0,50024.0,42753.0,0.6,0.0,0.5,-0.41482987999916077,0.6174482107162476,0.44225946068763733,0.012856822460889816,0.022099105641245842,0.11635296791791916,0.3394547998905182,-0.474498987197876,0.3401671350002289,6.089977264404297,-11.208759307861328,-0.6947912573814392,48712.0,50128.0,48965.0,44557.0,-0.3000025448675481,0.51961377298239,0.5,-0.37027299404144287,-0.5703427195549011,0.44073307514190674,-0.013602349907159805,-0.011545898392796516,0.13172736763954163,0.5990822315216064,-0.12498623877763748,2.0668740272521973,-2.295814037322998,-10.62792682647705,-0.07019875198602676,52341.0,49512.0,51141.0,48588.0,-0.29999491024331576,-0.5196181808098181,0.5
2.327,TAKEOFF,intermittent,1.0,0.6137140989303589,0.010967742651700974,0.4531150758266449,0.04043077304959297,0.013926519080996513,0.14604061841964722,-0.14008258283138275,-0.40405401587486267,3.7926173210144043,-3.2391562461853027,-7.032175540924072,-1.351595401763916,47825.0,47874.0,50014.0,43453.0,0.6,0.0,0.5,-0.41480302810668945,0.6216184496879578,0.4547412097454071,0.012856822460889816,0.022099105641245842,0.11635296791791916,0.3902319669723511,-0.3794091045856476,0.32426220178604126,7.2801899909973145,-7.9753499031066895,-2.569425106048584,49016.0,49673.0,48677.0,45509.0,-0.3000025448675481,0.51961377298239,0.5,-0.3739144802093506,-0.5723697543144226,0.455009400844574,-0.013602349907159805,-0.011545898392796516,0.13172736763954163,0.5323889255523682,0.10595261305570602,2.052910566329956,-5.754587173461914,-11.393892288208008,0.054908622056245804,52479.0,49457.0,51342.0,49388.0,-0.29999491024331576,-0.5196181808098181,0.5
2.347,TAKEOFF,intermittent,1.0,0.6137140989303589,0.010967742651700974,0.4531150758266449,0.03844970464706421,0.0260750912129879,0.13872893154621124,-0.26963678002357483,-0.051326192915439606,3.6817798614501953,4.070836067199707,-6.312819957733154,-1.9056129455566406,48398.0,47925.0,49584.0,43566.0,-0.587631084772792,-0.12120110646669752,0.5,-0.41480302810668945,0.6216184496879578,0.4547412097454071,0.031807273626327515,-0.0009175317245535553,0.11083231121301651,0.539946436882019,-0.2412668913602829,0.28029152750968933,7.5424323081970215,-4.0312700271606445,-2.210167169570923,48876.0,49250.0,48963.0,45998.0,0.40002649160338727,-0.44718989927712494,0.5,-0.3739144802093506,-0.5723697543144226,0.455009400844574,-0.014571319334208965,-0.014880471862852573,0.12315870076417923,0.3846382200717926,0.337388277053833,2.058464765548706,-7.046112537384033,-9.338719367980957,0.6153307557106018,52543.0,49583.0,51471.0,49228.0,0.18567537517292643,0.5705476799132505,0.5
2.368,TAKEOFF,intermittent,1.0,0.6137140989303589,0.010967742651700974,0.4531150758266449,0.03024904616177082,0.015075859613716602,0.12489635497331619,-0.1411679983139038,0.06422106176614761,3.5779824256896973,4.592684745788574,-9.073305130004883,-0.9709355235099792,48761.0,48200.0,49340.0,43306.0,0.6,0.0,0.5,-0.41480302810668945,0.6216184496879578,0.4547412097454071,0.02124171517789364,0.003589249448850751,0.11291591078042984,0.8107051253318787,-0.16446983814239502,0.25465643405914307,6.962327003479004,-6.7308030128479,-1.6732571125030518,48479.0,49500.0,49361.0,45485.0,-0.3000025448675481,0.51961377298239,0.5,-0.3739144802093506,-0.5723697543144226,0.455009400844574,-0.015592072159051895,-0.013421687297523022,0.11827778071165085,0.18483282625675201,0.4950302541255951,2.0607540607452393,-9.7561616897583,-2.966593027114868,-0.5384649038314819,53139.0,48656.0,50983.0,50338.0,-0.29999491024331576,-0.5196181808098181,0.5
2.393,TAKEOFF,intermittent,1.0,0.6137140989303589,0.010967742651700974,0.4531150758266449,0.03024904616177082,0.015075859613716602,0.12489635497331619,0.014276452362537384,0.31349125504493713,3.5558359622955322,3.5233266353607178,-6.106637954711914,-1.3894574642181396,49514.0,48094.0,49807.0,42077.0,0.6,0.0,0.5,-0.41480302810668945,0.6216184496879578,0.4547412097454071,0.017454562708735466,0.0048539950512349606,0.11525332182645798,0.9662293791770935,0.0635639950633049,0.2726922333240509,4.4216532707214355,-9.026174545288086,-1.3715671300888062,48479.0,49500.0,49361.0,45485.0,-0.3000025448675481,0.51961377298239,0.5,-0.3739144802093506,-0.5723697543144226,0.455009400844574,-0.009731610305607319,-0.01649380475282669,0.12008991092443466,0.01831342838704586,0.5097050070762634,2.054988145828247,-6.323326587677002,1.9466062784194946,0.41564881801605225,53139.0,48656.0,50983.0,50338.0,-0.29999491024331576,-0.5196181808098181,0.5
2.408,TAKEOFF,intermittent,1.0,0.61419278383255,0.015243493020534515,0.46742314100265503,0.023360393941402435,0.026525020599365234,0.12136906385421753,0.020376980304718018,0.4594467282295227,3.5959510803222656,6.234950065612793,-3.978233575820923,-2.2424542903900146,48237.0,48615.0,50023.0,43046.0,0.6,0.0,0.5,-0.4133271276950836,0.6221256256103516,0.46688225865364075,0.018768152222037315,0.002097980584949255,0.1090923547744751,1.0146883726119995,0.21835198998451233,0.2490810602903366,0.4669281244277954,-6.4110636711120605,-0.8525294065475464,48637.0,50014.0,49102.0,44770.0,-0.3000025448675481,0.51961377298239,0.5,-0.3739144802093506,-0.5723697543144226,0.455009400844574,-0.003378334455192089,-0.02277366816997528,0.12019084393978119,-0.032695408910512924,0.37024542689323425,2.0940797328948975,-4.015734672546387,7.025833606719971,0.8607308864593506,53785.0,49274.0,50230.0,49423.0,-0.29999491024331576,-0.5196181808098181,0.5
2.429,TAKEOFF,intermittent,1.0,0.61419278383255,0.015243493020534515,0.46742314100265503,0.02205742336809635,0.02974838577210903,0.11309728771448135,0.18887320160865784,0.6469714641571045,3.5802736282348633,2.354491949081421,-2.5066723823547363,-1.8935357332229614,49181.0,47933.0,50339.0,42685.0,0.6,0.0,0.5,-0.4133271276950836,0.6221256256103516,0.46688225865364075,0.024692777544260025,-0.01238084677606821,0.11168596148490906,1.0577354431152344,0.23126181960105896,0.22784481942653656,-3.7626419067382812,-0.3194938898086548,-0.4752185642719269,49060.0,49603.0,48722.0,45228.0,-0.3000025448675481,0.51961377298239,0.5,-0.36856555938720703,-0.5768967866897583,0.46869364380836487,0.0023825436364859343,-0.028778959065675735,0.12015079706907272,-0.13771258294582367,0.01899893209338188,2.1598148345947266,-2.970179319381714,8.997981071472168,1.3883590698242188,53084.0,47774.0,50934.0,50760.0,-0.29999491024331576,-0.5196181808098181,0.5
2.448,TAKEOFF,intermittent,1.0,0.61419278383255,0.015243493020534515,0.46742314100265503,0.05367785319685936,0.022037874907255173,0.11509210616350174,0.18887320160865784,0.6469714641571045,3.5802736282348633,2.354491949081421,-2.5066723823547363,-1.8935357332229614,48756.0,47393.0,49280.0,44418.0,-0.5820531047128806,-0.145650895273927,0.5,-0.4133271276950836,0.6221256256103516,0.46688225865364075,0.029514620080590248,-0.02041594870388508,0.10662486404180527,1.0577354431152344,0.23126181960105896,0.22784481942653656,-3.7626419067382812,-0.3194938898086548,-0.4752185642719269,49239.0,49151.0,48676.0,45791.0,0.41836404062761195,-0.43008316580603084,0.5,-0.36856555938720703,-0.5768967866897583,0.46869364380836487,-0.017235103994607925,-0.009953337721526623,0.11139093339443207,-0.13771258294582367,0.01899893209338188,2.1598148345947266,-2.970179319381714,8.997981071472168,1.3883590698242188,53084.0,47774.0,50934.0,50760.0,0.16167140912191097,0.5778082341681673,0.5
2.468,TAKEOFF,intermittent,1.0,0.61419278383255,0.015243493020534515,0.46742314100265503,0.05226000025868416,0.021009869873523712,0.10652588307857513,0.2948143482208252,0.45992302894592285,3.4624204635620117,2.5297701358795166,-1.2065961360931396,-3.162867307662964,48686.0,48480.0,49438.0,43329.0,0.6,0.0,0.5,-0.4133271276950836,0.6221256256103516,0.46688225865364075,0.028830328956246376,-0.023776385933160782,0.10482169687747955,0.7700715661048889,0.3770572245121002,0.23297610878944397,-9.446515083312988,3.467179536819458,-1.3270959854125977,48798.0,48637.0,48954.0,46582.0,-0.3000025448675481,0.51961377298239,0.5,-0.36856555938720703,-0.5768967866897583,0.46869364380836487,-0.005898105446249247,-0.016085049137473106,0.11167588829994202,-0.1647081971168518,-0.125148206949234,2.164830207824707,-3.2799572944641113,5.780332565307617,0.9377679228782654,53071.0,49350.0,51033.0,49399.0,-0.29999491024331576,-0.5196181808098181,0.5
2.487,TAKEOFF,intermittent,1.0,0.61419278383255,0.015243493020534515,0.46742314100265503,0.05082061514258385,0.01987205073237419,0.09836076945066452,0.3824220597743988,0.4991224408149719,3.372965097427368,2.981360912322998,-3.5299766063690186,-0.9686042666435242,49415.0,47944.0,48905.0,44088.0,0.6,0.0,0.5,-0.4133271276950836,0.6221256256103516,0.46688225865364075,0.009180144406855106,-0.022318160161376,0.10494691878557205,0.6632549166679382,0.22435331344604492,0.1646338552236557,-10.780702590942383,0.3659168779850006,-0.8618691563606262,48331.0,48569.0,49377.0,46534.0,-0.3000025448675481,0.51961377298239,0.5,-0.36856555938720703,-0.5768967866897583,0.46869364380836487,-0.005056783556938171,-0.015482693910598755,0.1091841533780098,-0.3741218149662018,-0.1290963888168335,2.1945080757141113,-3.022759437561035,-0.7247207164764404,0.1044219359755516,53145.0,48439.0,50964.0,50301.0,-0.29999491024331576,-0.5196181808098181,0.5
2.51,TAKEOFF,intermittent,1.0,0.6223878264427185,0.019415799528360367,0.4804399609565735,0.05082061514258385,0.01987205073237419,0.09836076945066452,0.3824220597743988,0.4991224408149719,3.372965097427368,2.981360912322998,-3.5299766063690186,-0.9686042666435242,49415.0,47944.0,48905.0,44088.0,-0.5782175432985834,-0.16020135024946197,0.5,-0.4103647768497467,0.6172009110450745,0.47819384932518005,0.008441783487796783,-0.02438962273299694,0.10121989250183105,0.6632549166679382,0.22435331344604492,0.1646338552236557,-10.780702590942383,0.3659168779850006,-0.8618691563606262,48331.0,48569.0,49377.0,46534.0,0.4290177522436111,-0.41945651533840733,0.5,-0.36856555938720703,-0.5768967866897583,0.46869364380836487,-0.009322885423898697,-0.0019961108919233084,0.10292178392410278,-0.3741218149662018,-0.1290963888168335,2.1945080757141113,-3.022759437561035,-0.7247207164764404,0.1044219359755516,52729.0,49251.0,51613.0,49574.0,0.14713075616400928,0.5816807892569659,0.5
2.528,TAKEOFF,intermittent,1.0,0.6223878264427185,0.019415799528360367,0.4804399609565735,0.05220251530408859,0.023049188777804375,0.10226505994796753,0.4619499444961548,0.765134334564209,3.268650770187378,5.093845367431641,-8.465631484985352,-2.5813608169555664,48536.0,48237.0,49571.0,43448.0,0.6,0.0,0.5,-0.4103647768497467,0.6172009110450745,0.47819384932518005,0.007722880691289902,-0.02580268122255802,0.10134823620319366,0.2616629898548126,0.1909756064414978,0.1461355835199356,-6.696365833282471,-2.3623692989349365,0.7189636826515198,48738.0,49503.0,49275.0,45222.0,-0.3000025448675481,0.51961377298239,0.5,-0.37057507038116455,-0.5766519904136658,0.47908809781074524,-0.008856179192662239,-0.0007343641482293606,0.10075816512107849,-0.4169903099536896,-0.02202599123120308,2.210552930831909,-0.7598847150802612,-3.91318416595459,0.49853062629699707,52789.0,48735.0,51553.0,50098.0,-0.29999491024331576,-0.5196181808098181,0.5
