timestamp_sec,flight_state,fault_type,fault_motor_health,cf1_X,cf1_Y,cf1_Z,cf1_VelX,cf1_VelY,cf1_VelZ,cf1_Roll,cf1_Pitch,cf1_Yaw,cf1_GyroX,cf1_GyroY,cf1_GyroZ,cf1_Motor1,cf1_Motor2,cf1_Motor3,cf1_Motor4,cf1_targ_x,cf1_targ_y,cf1_targ_z,cf2_X,cf2_Y,cf2_Z,cf2_VelX,cf2_VelY,cf2_VelZ,cf2_Roll,cf2_Pitch,cf2_Yaw,cf2_GyroX,cf2_GyroY,cf2_GyroZ,cf2_Motor1,cf2_Motor2,cf2_Motor3,cf2_Motor4,cf2_targ_x,cf2_targ_y,cf2_targ_z,cf3_X,cf3_Y,cf3_Z,cf3_VelX,cf3_VelY,cf3_VelZ,cf3_Roll,cf3_Pitch,cf3_Yaw,cf3_GyroX,cf3_GyroY,cf3_GyroZ,cf3_Motor1,cf3_Motor2,cf3_Motor3,cf3_Motor4,cf3_targ_x,cf3_targ_y,cf3_targ_z
0.008,TAKEOFF,incipient,1.0,0.599190890789032,0.010114987380802631,0.0034631257876753807,-0.013143092393875122,-0.007144152652472258,0.005829754285514355,0.3777994215488434,0.3246619999408722,0.024865759536623955,-0.03162412717938423,0.1420806646347046,-0.10324255377054214,0.0,0.0,0.0,0.0,0.6,0.0,0.5,-0.3883950114250183,0.5386636257171631,0.007319954689592123,6.120637408457696e-05,0.0009242897504009306,0.005302537232637405,0.6376551389694214,-1.3720849752426147,-0.02119891345500946,0.15076535940170288,0.2968960106372833,0.08974368125200272,0.0,0.0,0.0,0.0,-0.3000025448675481,0.51961377298239,0.5,-0.3598620593547821,-0.5176367163658142,0.005230626557022333,0.005641118157655001,-0.0039611924439668655,-0.0018851617351174355,0.14813797175884247,0.090065598487854,2.8929553031921387,-0.008095236495137215,-0.054848797619342804,0.17863163352012634,0.0,0.0,0.0,0.0,-0.29999491024331576,-0.5196181808098181,0.5
0.028,TAKEOFF,incipient,1.0,0.599190890789032,0.010114987380802631,0.0034631257876753807,-0.010297519154846668,-0.006507087033241987,0.005025813821703196,0.38775938749313354,0.30324891209602356,0.004692614544183016,-0.2649534046649933,-0.13777431845664978,0.29405754804611206,0.0,0.0,0.0,0.0,0.6,0.0,0.5,-0.3883950114250183,0.5386636257171631,0.007319954689592123,-0.000514102925080806,-8.529535989509895e-06,0.0039609624072909355,0.6408954858779907,-1.3712648153305054,0.006824244279414415,-0.02575872652232647,0.11947878450155258,0.20586495101451874,0.0,0.0,0.0,0.0,-0.3000025448675481,0.51961377298239,0.5,-0.3598620593547821,-0.5176367163658142,0.005230626557022333,0.0059844739735126495,-0.0028428405057638884,-0.0024525048211216927,0.1398049145936966,0.08439941704273224,2.931879758834839,-0.029667280614376068,0.13880957663059235,-0.2433549016714096,0.0,0.0,0.0,0.0,-0.29999491024331576,-0.5196181808098181,0.5
0.048,TAKEOFF,incipient,1.0,0.5999372601509094,0.009194016456604004,0.002306738868355751,-0.006922198459506035,-0.0073500340804457664,0.0016415193676948547,0.39357179403305054,0.2777513563632965,-0.025263460353016853,-0.18570572137832642,-0.15550991892814636,-0.10069069266319275,0.0,0.0,0.0,0.0,0.6,0.0,0.5,-0.38850128650665283,0.5384837985038757,0.007537703029811382,-0.0004552500613499433,-0.0007887502433732152,0.003355953376740217,0.6427523493766785,-1.3701103925704956,0.02457810565829277,-0.06996331363916397,-0.06221933290362358,0.16343186795711517,0.0,0.0,0.0,0.0,-0.3000025448675481,0.51961377298239,0.5,-0.3598620593547821,-0.5176367163658142,0.005230626557022333,0.005889675579965115,-0.002761597977951169,-0.0026175787206739187,0.14007286727428436,0.08353588730096817,2.930084466934204,0.2357625514268875,0.10955764353275299,0.1548909991979599,41296.0,38827.0,41371.0,38383.0,-0.29999491024331576,-0.5196181808098181,0.5
0.068,TAKEOFF,incipient,1.0,0.5999372601509094,0.009194016456604004,0.002306738868355751,-0.004806285258382559,-0.00848971214145422,-0.0002914674114435911,0.39883846044540405,0.2649669945240021,-0.04957899823784828,-0.31468304991722107,0.0701027661561966,0.880172848701477,37713.0,38378.0,37830.0,37387.0,0.6,0.0,0.5,-0.38850128650665283,0.5384837985038757,0.007537703029811382,-0.0003394671075511724,-0.0009096616413444281,0.0026776986196637154,0.6485728025436401,-1.3696092367172241,0.03936304152011871,0.11689852178096771,-0.04132017865777016,0.0993773490190506,40845.0,39486.0,38876.0,40233.0,-0.3000025448675481,0.51961377298239,0.5,-0.3598620593547821,-0.5176367163658142,0.005230626557022333,-0.005954565946012735,0.007899872027337551,-0.006808266509324312,0.04645604267716408,0.1853714883327484,2.9241368770599365,-0.01537569984793663,-0.007061811164021492,0.2325645536184311,41189.0,39210.0,41926.0,38883.0,-0.29999491024331576,-0.5196181808098181,0.5
0.088,TAKEOFF,incipient,1.0,0.5999372601509094,0.009194016456604004,0.002306738868355751,0.011723588220775127,-0.017327038571238518,-0.005893032532185316,0.46168020367622375,0.12421059608459473,-0.1131042018532753,1.861335277557373,1.578065276145935,1.528660774230957,39614.0,38305.0,36906.0,38666.0,0.6,0.0,0.5,-0.38850128650665283,0.5384837985038757,0.007537703029811382,0.0037952722050249577,-0.003271699184551835,0.0019786758348345757,0.6669514179229736,-1.3686374425888062,0.018701037392020226,0.30654457211494446,0.2583749294281006,-2.9808602333068848,41358.0,40231.0,39487.0,40210.0,-0.3000025448675481,0.51961377298239,0.5,-0.3620836138725281,-0.5178928971290588,0.005147600080817938,-0.010711242444813251,0.011004924774169922,-0.008143018931150436,0.018475396558642387,0.21990017592906952,2.910207986831665,-0.28622037172317505,-0.6137927770614624,4.77781867980957,42354.0,40259.0,42468.0,40296.0,-0.29999491024331576,-0.5196181808098181,0.5
0.108,TAKEOFF,incipient,1.0,0.5999372601509094,0.009194016456604004,0.002306738868355751,0.006928360555320978,-0.02131851762533188,-0.009363239631056786,0.478110134601593,0.16300544142723083,-0.18962891399860382,0.5141292214393616,0.83352130651474,0.25445353984832764,40160.0,40468.0,37894.0,38013.0,0.6,0.0,0.5,-0.38850128650665283,0.5384837985038757,0.007537703029811382,0.008226284757256508,-0.0063283429481089115,-0.003127285512164235,0.669538140296936,-1.368840217590332,0.0037937150336802006,-0.882774829864502,-0.6524204015731812,-1.5606689453125,43022.0,40305.0,40343.0,41783.0,-0.3000025448675481,0.51961377298239,0.5,-0.3620836138725281,-0.5178928971290588,0.005147600080817938,-0.018927618861198425,0.00484259519726038,-0.0005433445330709219,0.06379465013742447,0.2801920771598816,2.8760123252868652,0.4948127567768097,0.20274639129638672,0.7247164249420166,43870.0,40615.0,43512.0,40804.0,-0.29999491024331576,-0.5196181808098181,0.5
0.128,TAKEOFF,incipient,1.0,0.5999372601509094,0.009194016456604004,0.002306738868355751,-0.0023828702978789806,-0.007848219946026802,-0.008212393149733543,0.36866283416748047,0.2230798453092575,-0.14269211888313293,-1.222937822341919,-2.9342098236083984,-2.807725191116333,39191.0,39850.0,39963.0,40005.0,0.6,0.0,0.5,-0.38850128650665283,0.5384837985038757,0.007537703029811382,0.012589209713041782,-0.008969287388026714,-0.00507115526124835,0.6700440049171448,-1.3716095685958862,0.001049957238137722,0.7577834725379944,1.0407077074050903,-0.24651220440864563,44037.0,42375.0,41077.0,42360.0,-0.3000025448675481,0.51961377298239,0.5,-0.3620836138725281,-0.5178928971290588,0.005147600080817938,-0.019886218011379242,0.004568865057080984,-0.000437033420894295,0.07002479583024979,0.2852880656719208,2.8678178787231445,-1.709652066230774,1.4769591093063354,-0.02656763792037964,42646.0,43493.0,45797.0,40095.0,-0.29999491024331576,-0.5196181808098181,0.5
0.148,TAKEOFF,incipient,1.0,0.6041280031204224,0.00924401730298996,0.0007317294366657734,-0.0031771769281476736,-0.009108423255383968,-0.006627356167882681,0.34657561779022217,0.2539430856704712,-0.1598484218120575,-12.096367835998535,-9.701630592346191,8.726827621459961,38410.0,39558.0,43061.0,39560.0,0.6,0.0,0.5,-0.38857370615005493,0.5380788445472717,0.005966122727841139,0.01690860092639923,-0.010826126672327518,-0.006241348572075367,0.6724388003349304,-1.3686046600341797,0.0027164106722921133,-0.08409371227025986,-1.8648966550827026,-3.172044277191162,43783.0,42883.0,41623.0,43090.0,-0.3000025448675481,0.51961377298239,0.5,-0.3620836138725281,-0.5178928971290588,0.005147600080817938,-0.020579151809215546,0.0017772663850337267,-0.002687405562028289,0.08965989202260971,0.2693646550178528,2.8484714031219482,1.3279995918273926,-1.3004555702209473,-3.6769161224365234,43453.0,43651.0,45697.0,42070.0,-0.29999491024331576,-0.5196181808098181,0.5
0.168,TAKEOFF,incipient,1.0,0.6041280031204224,0.00924401730298996,0.0007317294366657734,-0.01965818740427494,-0.0073421369306743145,-0.0010346632916480303,0.1631157100200653,0.5062115788459778,-0.1102340966463089,6.305468559265137,11.167464256286621,-14.599492073059082,42302.0,42458.0,35679.0,41140.0,0.6,0.0,0.5,-0.38857370615005493,0.5380788445472717,0.005966122727841139,0.02134636417031288,-0.012192479334771633,-0.0030228428076952696,0.6773415803909302,-1.3386919498443604,-0.1035713255405426,1.082047700881958,0.33400529623031616,-10.016263008117676,44550.0,43674.0,41082.0,43934.0,-0.3000025448675481,0.51961377298239,0.5,-0.3620836138725281,-0.5178928971290588,0.005147600080817938,-0.019622651860117912,0.003218580037355423,0.0025631487369537354,0.08409310132265091,0.25242891907691956,2.7552545070648193,-0.20369240641593933,0.7321134209632874,-1.388391375541687,44560.0,42313.0,46478.0,43534.0,-0.29999491024331576,-0.5196181808098181,0.5
0.188,TAKEOFF,incipient,1.0,0.6041280031204224,0.00924401730298996,0.0007317294366657734,-0.01256059855222702,-0.011055945418775082,-0.010210626758635044,0.38811153173446655,0.23075373470783234,-0.45053431391716003,0.5743939280509949,6.000481605529785,-12.826132774353027,39286.0,49993.0,38164.0,33098.0,0.6,0.0,0.5,-0.38857370615005493,0.5380788445472717,0.005966122727841139,0.025394806638360023,-0.014249224215745926,-0.003734609577804804,0.6805875897407532,-1.3542667627334595,-0.28790900111198425,-1.2042156457901,-0.9227980375289917,-4.234122276306152,45176.0,43020.0,40821.0,45784.0,-0.3000025448675481,0.51961377298239,0.5,-0.3630788028240204,-0.5173187851905823,0.006084137130528688,-0.01849886029958725,0.0035738118458539248,0.006142163649201393,0.0846950113773346,0.23294265568256378,2.7780227661132812,-1.4112788438796997,2.375843048095703,6.882473945617676,46197.0,45359.0,45882.0,41191.0,-0.29999491024331576,-0.5196181808098181,0.5
0.208,TAKEOFF,incipient,1.0,0.6041280031204224,0.00924401730298996,0.0007317294366657734,-0.013216582126915455,-0.012410192750394344,-0.014622120186686516,0.3399752676486969,0.24847836792469025,-0.7485535740852356,-10.789280891418457,-2.800832986831665,-23.806217193603516,36252.0,51699.0,37784.0,35135.0,0.6,0.0,0.5,-0.38857370615005493,0.5380788445472717,0.005966122727841139,0.029361208900809288,-0.01615295372903347,-0.0033895208034664392,0.6805875897407532,-1.3542667627334595,-0.28790900111198425,-1.2042156457901,-0.9227980375289917,-4.234122276306152,45439.0,45626.0,40767.0,45528.0,-0.3000025448675481,0.51961377298239,0.5,-0.3630788028240204,-0.5173187851905823,0.006084137130528688,-0.019273150712251663,0.0032250944059342146,0.008184479549527168,0.07151565700769424,0.20006607472896576,2.8558871746063232,5.915083885192871,-5.655783176422119,-5.568116664886475,47892.0,44136.0,43866.0,44169.0,-0.29999491024331576,-0.5196181808098181,0.5
0.228,TAKEOFF,incipient,1.0,0.6041280031204224,0.00924401730298996,0.0007317294366657734,-0.004510554019361734,-0.011677175760269165,-0.022149289026856422,0.26204290986061096,0.28544512391090393,-1.2767223119735718,-2.661461114883423,9.92989444732666,-24.971904754638672,37723.0,46429.0,35005.0,45959.0,0.6,0.0,0.5,-0.38857370615005493,0.5380788445472717,0.005966122727841139,0.03105708584189415,-0.017198573797941208,-0.0036010483745485544,0.6562392711639404,-1.3519786596298218,-0.74653559923172,0.8108740448951721,-0.17330780625343323,-17.2733097076416,46017.0,44501.0,41705.0,46547.0,-0.3000025448675481,0.51961377298239,0.5,-0.3630788028240204,-0.5173187851905823,0.006084137130528688,-0.0034966329112648964,-0.007107528392225504,0.01124583836644888,0.17644003033638,0.09163016825914383,2.8178584575653076,4.133901119232178,-5.561678409576416,8.742274284362793,47799.0,39962.0,46969.0,46399.0,-0.29999491024331576,-0.5196181808098181,0.5
0.248,TAKEOFF,incipient,1.0,0.6063194870948792,0.0077460091561079025,-0.0012239138595759869,-0.005445682909339666,-0.01259313803166151,-0.021631324663758278,0.37406042218208313,0.15322135388851166,-1.8063932657241821,11.602715492248535,17.563892364501953,-27.896825790405273,39624.0,46207.0,30445.0,48508.0,0.6,0.0,0.5,-0.38758257031440735,0.5368162393569946,0.005296223796904087,0.03759340941905975,-0.021660709753632545,-0.002941705519333482,0.6354331970214844,-1.3592489957809448,-1.0338819026947021,-0.7512026429176331,0.0314461775124073,-6.382033348083496,45301.0,44915.0,41732.0,47898.0,-0.3000025448675481,0.51961377298239,0.5,-0.3630788028240204,-0.5173187851905823,0.006084137130528688,-0.010440496727824211,-0.0013086365070194006,0.012498787604272366,0.12782084941864014,0.13381658494472504,2.9183743000030518,4.678494930267334,-4.178523540496826,-2.145188331604004,51101.0,46860.0,42691.0,41134.0,-0.29999491024331576,-0.5196181808098181,0.5
0.268,TAKEOFF,incipient,1.0,0.6063194870948792,0.0077460091561079025,-0.0012239138595759869,-0.005834936164319515,-0.014026500284671783,-0.028482595458626747,0.3913303017616272,0.20788508653640747,-2.3418633937835693,-15.411396026611328,-21.852022171020508,-32.378089904785156,33236.0,47855.0,37721.0,47889.0,0.6,0.0,0.5,-0.38758257031440735,0.5368162393569946,0.005296223796904087,0.03793380409479141,-0.02016034722328186,0.0006304417038336396,0.6124681830406189,-1.3267931938171387,-1.1878727674484253,2.6035518646240234,0.924924910068512,-0.5513068437576294,46077.0,44937.0,42968.0,47120.0,-0.3000025448675481,0.51961377298239,0.5,-0.3630788028240204,-0.5173187851905823,0.006084137130528688,-0.013281913474202156,0.00022231385810300708,0.00877368450164795,0.17791007459163666,0.22430257499217987,2.9429574012756348,-18.473487854003906,10.514846801757812,-5.753775119781494,49650.0,47140.0,43701.0,43502.0,-0.29999491024331576,-0.5196181808098181,0.5
0.287,TAKEOFF,incipient,1.0,0.6063194870948792,0.0077460091561079025,-0.0012239138595759869,-0.028485022485256195,-0.010733922943472862,-0.007232644595205784,-0.005259052850306034,0.7916254997253418,-2.9814069271087646,6.545457363128662,8.142980575561523,-7.323873043060303,41525.0,46752.0,30736.0,47459.0,0.6,0.0,0.5,-0.38758257031440735,0.5368162393569946,0.005296223796904087,0.04013863950967789,-0.02244536392390728,1.2967811926500872e-05,0.6186975240707397,-1.3238422870635986,-1.2300398349761963,-0.019357046112418175,-3.3386647701263428,-0.3927668035030365,46462.0,45559.0,43711.0,46629.0,-0.3000025448675481,0.51961377298239,0.5,-0.3625265955924988,-0.5199972987174988,0.006022455636411905,-0.015179078094661236,-0.006020735949277878,0.011865591630339622,0.1370106190443039,0.13409914076328278,2.7821452617645264,8.548528671264648,-14.507619857788086,-7.382608413696289,48294.0,40388.0,45229.0,50498.0,-0.29999491024331576,-0.5196181808098181,0.5
0.308,TAKEOFF,incipient,1.0,0.6063194870948792,0.0077460091561079025,-0.0012239138595759869,-0.030852612107992172,-0.010883858427405357,-0.0080163748934865,0.11219611018896103,0.6439453959465027,-3.085141181945801,7.028099060058594,4.158289432525635,5.954805850982666,41588.0,45607.0,41275.0,42701.0,0.6,0.0,0.5,-0.38758257031440735,0.5368162393569946,0.005296223796904087,0.046071406453847885,-0.027252446860074997,-0.0007206915761344135,0.5888305306434631,-1.2900469303131104,-1.2413665056228638,1.7558448314666748,-1.3588910102844238,-1.3527398109436035,47736.0,46041.0,42587.0,46718.0,-0.3000025448675481,0.51961377298239,0.5,-0.3625265955924988,-0.5199972987174988,0.006022455636411905,-0.015113134868443012,-0.009744723327457905,0.007675050292164087,0.10780560225248337,0.08109864592552185,2.4562482833862305,7.1266584396362305,-9.904254913330078,-22.38393783569336,47638.0,49352.0,45059.0,44813.0,-0.29999491024331576,-0.5196181808098181,0.5
0.328,TAKEOFF,incipient,1.0,0.6063194870948792,0.0077460091561079025,-0.0012239138595759869,-0.03312132507562637,-0.010981906205415726,-0.014690267853438854,0.21128033101558685,0.5534587502479553,-2.8418259620666504,0.34605297446250916,2.7670652866363525,20.212270736694336,45155.0,42086.0,45214.0,40006.0,0.6,0.0,0.5,-0.38758257031440735,0.5368162393569946,0.005296223796904087,0.046729061752557755,-0.02527129091322422,0.0019704168662428856,0.5686996579170227,-1.2777553796768188,-1.236349105834961,-4.410199165344238,-3.377121925354004,4.15230655670166,48730.0,45549.0,41905.0,47809.0,-0.3000025448675481,0.51961377298239,0.5,-0.3625265955924988,-0.5199972987174988,0.006022455636411905,-0.015431396663188934,-0.010197932831943035,0.004458986688405275,0.23663517832756042,0.21420550346374512,2.050478219985962,-9.266525268554688,10.5861177444458,-20.157960891723633,46724.0,46977.0,46591.0,48264.0,-0.29999491024331576,-0.5196181808098181,0.5
0.348,TAKEOFF,incipient,1.0,0.6038969159126282,0.007891274988651276,-0.004246966913342476,-0.013357243500649929,-0.005830214824527502,-0.03972725197672844,0.2523185610771179,0.3036940097808838,-2.443516254425049,7.242509365081787,12.65300464630127,27.536632537841797,46283.0,42897.0,42447.0,43898.0,0.6,0.0,0.5,-0.38592779636383057,0.5354026556015015,0.005471540614962578,0.05105920508503914,-0.027260707691311836,0.00188957538921386,0.5545816421508789,-1.286411166191101,-1.1509246826171875,1.272675633430481,0.2923831343650818,5.108577251434326,50605.0,45404.0,41066.0,47371.0,-0.3000025448675481,0.51961377298239,0.5,-0.3625265955924988,-0.5199972987174988,0.006022455636411905,-0.015999972820281982,-0.010899510234594345,0.005326411686837673,0.119033582508564,0.07558704167604446,1.6592377424240112,9.144218444824219,-7.360807418823242,-15.289339065551758,46398.0,49706.0,48011.0,45116.0,-0.29999491024331576,-0.5196181808098181,0.5
0.368,TAKEOFF,incipient,1.0,0.6038969159126282,0.007891274988651276,-0.004246966913342476,-0.0148748978972435,0.012915327213704586,-0.024083856493234634,0.3014666736125946,0.109499491751194,-1.9288368225097656,3.2489781379699707,0.09997574239969254,30.927026748657227,44766.0,45847.0,45099.0,39536.0,0.6,0.0,0.5,-0.38592779636383057,0.5354026556015015,0.005471540614962578,0.04850907623767853,-0.02473912201821804,0.004940801300108433,0.5348469018936157,-1.2137993574142456,-0.9760280251502991,-4.659956455230713,-4.150522708892822,10.97028636932373,49710.0,43928.0,43690.0,48728.0,-0.3000025448675481,0.51961377298239,0.5,-0.3625265955924988,-0.5199972987174988,0.006022455636411905,0.004341581370681524,-0.017597457394003868,0.0037111304700374603,0.2987087368965149,0.04774896055459976,1.4428232908248901,-10.877362251281738,11.161083221435547,-6.1253862380981445,48243.0,46720.0,47649.0,48319.0,-0.29999491024331576,-0.5196181808098181,0.5
0.388,TAKEOFF,incipient,1.0,0.6038969159126282,0.007891274988651276,-0.004246966913342476,-0.012733937241137028,0.014770472422242165,-0.031408391892910004,0.17078855633735657,0.20785720646381378,-1.3154501914978027,-20.060062408447266,-18.898967742919922,34.30535888671875,41948.0,42139.0,48979.0,43609.0,0.6,0.0,0.5,-0.38592779636383057,0.5354026556015015,0.005471540614962578,0.05269474536180496,-0.02660462260246277,0.008575789630413055,0.4531593322753906,-1.1754419803619385,-0.7303156852722168,-3.762449026107788,-9.926339149475098,15.753273963928223,50048.0,45107.0,44276.0,47598.0,-0.3000025448675481,0.51961377298239,0.5,-0.3620060980319977,-0.5216898322105408,0.006598847918212414,0.00037146382965147495,-0.021856538951396942,0.010955114848911762,0.15473821759223938,-0.09208070486783981,1.2980256080627441,10.509081840515137,-13.022642135620117,-5.622191905975342,48783.0,50571.0,47691.0,44448.0,-0.29999491024331576,-0.5196181808098181,0.5
0.408,TAKEOFF,incipient,1.0,0.6038969159126282,0.007891274988651276,-0.004246966913342476,-0.013221663422882557,0.014032883569598198,-0.039630137383937836,-0.18300075829029083,0.5828427672386169,-0.6855990886688232,-14.725302696228027,-13.710235595703125,25.608091354370117,43728.0,43833.0,47955.0,43216.0,0.6,0.0,0.5,-0.38592779636383057,0.5354026556015015,0.005471540614962578,0.05668393522500992,-0.028119010850787163,0.013187702745199203,0.3204497694969177,-1.0557618141174316,-0.3994626998901367,-18.078832626342773,-0.7531201839447021,19.12619400024414,49528.0,44015.0,46243.0,48198.0,-0.3000025448675481,0.51961377298239,0.5,-0.3620060980319977,-0.5216898322105408,0.006598847918212414,-0.00693419948220253,-0.015513085760176182,0.0066123721189796925,0.2358132004737854,0.14544275403022766,1.2053327560424805,-11.217642784118652,17.158924102783203,-4.213076591491699,47013.0,48350.0,50163.0,47471.0,-0.29999491024331576,-0.5196181808098181,0.5
0.428,TAKEOFF,incipient,1.0,0.6038969159126282,0.007891274988651276,-0.004246966913342476,-0.02643938921391964,0.02388668805360794,-0.009566848166286945,-0.36541545391082764,0.7103069424629211,-0.13028889894485474,3.568618059158325,3.3970937728881836,29.244983673095703,45410.0,43672.0,46787.0,42312.0,0.6,0.0,0.5,-0.38592779636383057,0.5354026556015015,0.005471540614962578,0.04106370359659195,-0.03196413069963455,0.016864188015460968,0.3204497694969177,-1.0557618141174316,-0.3994626998901367,-18.078832626342773,-0.7531201839447021,19.12619400024414,49680.0,45559.0,47152.0,46709.0,-0.3000025448675481,0.51961377298239,0.5,-0.3620060980319977,-0.5216898322105408,0.006598847918212414,-0.008351223543286324,-0.01687093824148178,0.0007916082395240664,0.10955203324556351,-0.016292452812194824,1.134526252746582,6.232985973358154,-13.272994041442871,5.107132434844971,51599.0,49572.0,47416.0,45654.0,-0.29999491024331576,-0.5196181808098181,0.5
0.448,TAKEOFF,incipient,1.0,0.6018083095550537,0.01502218097448349,-0.0013711350038647652,-0.028918519616127014,0.02512619085609913,-0.01517705898731947,-0.2056376039981842,0.6467342376708984,0.40702489018440247,10.777691841125488,17.732481002807617,20.001527786254883,47775.0,41776.0,44611.0,45315.0,0.6,0.0,0.5,-0.3854757249355316,0.5329941511154175,0.006775677669793367,0.04016564413905144,-0.02787681855261326,0.01889670453965664,-0.1819150298833847,-0.7499627470970154,0.31212568283081055,-15.611810684204102,-9.701021194458008,21.821014404296875,48875.0,43772.0,48939.0,48252.0,-0.3000025448675481,0.51961377298239,0.5,-0.3620060980319977,-0.5216898322105408,0.006598847918212414,-0.008459738455712795,-0.017393335700035095,0.000755643064621836,0.23336447775363922,0.112733855843544,1.2583446502685547,-4.698227405548096,11.116215705871582,12.538609504699707,49939.0,47572.0,50863.0,47328.0,-0.29999491024331576,-0.5196181808098181,0.5
0.468,TAKEOFF,incipient,1.0,0.6018083095550537,0.01502218097448349,-0.0013711350038647652,-0.031219489872455597,0.0260063037276268,-0.01162955816835165,0.058807019144296646,0.31266355514526367,0.7950393557548523,10.535110473632812,10.831174850463867,19.94746971130371,46562.0,44540.0,46445.0,43141.0,0.6,0.0,0.5,-0.3854757249355316,0.5329941511154175,0.006775677669793367,0.045645009726285934,-0.03570646792650223,0.020139753818511963,-0.5539258122444153,-0.47407981753349304,0.719921886920929,-24.72821807861328,-3.305591106414795,22.78197479248047,49379.0,43394.0,49290.0,48966.0,-0.3000025448675481,0.51961377298239,0.5,-0.3620060980319977,-0.5216898322105408,0.006598847918212414,-0.00692956754937768,-0.01987798884510994,-0.0036396996583789587,0.11794070154428482,-0.04302208498120308,1.4809015989303589,3.4728376865386963,-6.397230625152588,11.120684623718262,51315.0,51280.0,49866.0,44249.0,-0.29999491024331576,-0.5196181808098181,0.5
0.487,TAKEOFF,incipient,1.0,0.6018083095550537,0.01502218097448349,-0.0013711350038647652,-0.03258143365383148,0.026022085919976234,-0.012513013556599617,0.1957799643278122,0.14024166762828827,1.1525380611419678,-2.566565990447998,7.739396572113037,14.194015502929688,45986.0,43253.0,47259.0,45371.0,0.6,0.0,0.5,-0.3854757249355316,0.5329941511154175,0.006775677669793367,0.04382260516285896,-0.029746664687991142,0.028389880433678627,-1.1087855100631714,-0.37609249353408813,1.1120362281799316,-35.79403305053711,-9.032771110534668,24.4346981048584,48445.0,41598.0,51212.0,49874.0,-0.3000025448675481,0.51961377298239,0.5,-0.3575936555862427,-0.5281341671943665,0.0073944563046097755,0.019449083134531975,-0.036752041429281235,0.003939222078770399,0.4090310037136078,-0.0993993878364563,1.7274051904678345,-4.591426849365234,0.7186615467071533,2.565369129180908,52781.0,46147.0,47372.0,51183.0,-0.29999491024331576,-0.5196181808098181,0.5
0.507,TAKEOFF,incipient,1.0,0.6018083095550537,0.01502218097448349,-0.0013711350038647652,-0.011491350829601288,0.028010064736008644,-0.03240583464503288,0.1472913771867752,0.003941206727176905,1.4079915285110474,-7.62428092956543,-7.806704044342041,15.72414493560791,45760.0,44908.0,48794.0,44740.0,0.6,0.0,0.5,-0.3854757249355316,0.5329941511154175,0.006775677669793367,0.047750648111104965,-0.032749202102422714,0.031006047502160072,-1.7996770143508911,-0.1863541305065155,1.5671491622924805,-26.145130157470703,-18.392423629760742,20.14930534362793,49220.0,43498.0,50987.0,48860.0,-0.3000025448675481,0.51961377298239,0.5,-0.3575936555862427,-0.5281341671943665,0.0073944563046097755,0.019843775779008865,-0.0381469652056694,0.007750615477561951,0.2813890874385834,-0.252840518951416,1.7598862648010254,-5.1089701652526855,-8.156745910644531,-0.06501504778862,50679.0,51320.0,50352.0,46523.0,-0.29999491024331576,-0.5196181808098181,0.5
0.528,TAKEOFF,incipient,1.0,0.6018083095550537,0.01502218097448349,-0.0013711350038647652,-0.02224854566156864,0.05747893825173378,0.005391881801187992,-0.12957262992858887,0.2513658404350281,1.801105260848999,0.6893653869628906,2.013878345489502,11.290013313293457,47467.0,43495.0,48493.0,43783.0,0.6,0.0,0.5,-0.3854757249355316,0.5329941511154175,0.006775677669793367,0.0406225211918354,-0.020861802622675896,0.03875388577580452,-2.2970643043518066,0.2902666926383972,1.942252278327942,-12.603536605834961,-36.98847579956055,14.73060131072998,50093.0,42838.0,53916.0,44437.0,-0.3000025448675481,0.51961377298239,0.5,-0.3575936555862427,-0.5281341671943665,0.0073944563046097755,0.020651010796427727,-0.0389583483338356,0.009011163376271725,0.22395439445972443,-0.13845382630825043,1.7737507820129395,3.8630003929138184,-0.27563855051994324,3.8634347915649414,52588.0,49816.0,49489.0,48251.0,-0.29999491024331576,-0.5196181808098181,0.5
0.548,TAKEOFF,incipient,1.0,0.5989785194396973,0.02488541789352894,0.0008386341505683959,-0.02410508133471012,0.058207493275403976,0.007270084228366613,-0.11538849025964737,0.21354861557483673,1.997756838798523,0.022879289463162422,0.9486179947853088,6.8217034339904785,46533.0,44169.0,48988.0,44327.0,0.6,0.0,0.5,-0.3819218873977661,0.5299211144447327,0.008431830443441868,0.039173029363155365,-0.01265711709856987,0.03452371805906296,-2.535623788833618,1.1651936769485474,2.2655866146087646,-6.877742767333984,-51.25254440307617,16.30489158630371,48014.0,47648.0,55088.0,41097.0,-0.3000025448675481,0.51961377298239,0.5,-0.3575936555862427,-0.5281341671943665,0.0073944563046097755,0.03281032294034958,-0.04497990757226944,-0.003043011063709855,0.0756816416978836,-0.060000933706760406,1.9005155563354492,2.198958396911621,2.806021213531494,2.4627091884613037,53048.0,51027.0,50147.0,48105.0,-0.29999491024331576,-0.5196181808098181,0.5
0.568,TAKEOFF,incipient,1.0,0.5989785194396973,0.02488541789352894,0.0008386341505683959,-0.013240314088761806,0.05575745180249214,-0.0026923001278191805,-0.07361771166324615,0.19307616353034973,2.0812511444091797,-0.2326587438583374,-7.921195983886719,6.954870700836182,46590.0,44455.0,49517.0,45111.0,0.6,0.0,0.5,-0.3819218873977661,0.5299211144447327,0.008431830443441868,0.03983244672417641,-0.0061057982966303825,0.030731946229934692,-2.6065304279327393,2.147172451019287,2.59123158454895,-6.057234764099121,-43.22466278076172,14.64732551574707,49938.0,47530.0,54810.0,41075.0,-0.3000025448675481,0.51961377298239,0.5,-0.3575936555862427,-0.5281341671943665,0.0073944563046097755,0.019205430522561073,-0.01655467227101326,-0.0018908564234152436,0.2144288420677185,-0.09576333314180374,2.064445734024048,6.277003765106201,-9.821962356567383,18.582530975341797,53920.0,48876.0,51706.0,48724.0,-0.29999491024331576,-0.5196181808098181,0.5
0.588,TAKEOFF,incipient,1.0,0.5989785194396973,0.02488541789352894,0.0008386341505683959,-0.013776746578514576,0.05600883811712265,-0.0040147933177649975,-0.0737559050321579,0.3250236511230469,2.18780779838562,7.415715217590332,12.950660705566406,1.5793561935424805,48305.0,44358.0,46960.0,47423.0,0.6,0.0,0.5,-0.3819218873977661,0.5299211144447327,0.008431830443441868,0.03645090013742447,0.002408543135970831,0.03233557939529419,-2.7091712951660156,2.940988063812256,2.8804686069488525,6.764825820922852,-24.77841567993164,16.84102439880371,49773.0,46557.0,55083.0,43772.0,-0.3000025448675481,0.51961377298239,0.5,-0.3567003309726715,-0.5285441875457764,0.007291766349226236,0.013810825534164906,-0.020254172384738922,0.01577022671699524,0.3351353704929352,0.027475347742438316,2.4192090034484863,3.7903778553009033,9.242217063903809,15.710898399353027,55083.0,49675.0,50290.0,48379.0,-0.29999491024331576,-0.5196181808098181,0.5
0.608,TAKEOFF,incipient,1.0,0.5989785194396973,0.02488541789352894,0.0008386341505683959,-0.014815622009336948,0.05622830241918564,-0.006294670980423689,0.11420028656721115,0.06686002016067505,2.240277051925659,-4.118678092956543,3.051520824432373,-5.853381156921387,51404.0,46458.0,43363.0,46495.0,0.6,0.0,0.5,-0.3819218873977661,0.5299211144447327,0.008431830443441868,0.007737820036709309,0.01897798664867878,0.043199557811021805,-2.5744521617889404,3.4902474880218506,3.1960902214050293,22.579648971557617,-9.1764554977417,15.55502986907959,52459.0,46481.0,53781.0,43705.0,-0.3000025448675481,0.51961377298239,0.5,-0.3567003309726715,-0.5285441875457764,0.007291766349226236,0.01393288653343916,-0.021482905372977257,0.01888103410601616,0.46571195125579834,-0.20684197545051575,2.725966453552246,11.32695484161377,13.201360702514648,13.92016315460205,54324.0,50088.0,51770.0,48535.0,-0.29999491024331576,-0.5196181808098181,0.5
0.628,TAKEOFF,incipient,1.0,0.5989785194396973,0.02488541789352894,0.0008386341505683959,-0.02888258919119835,0.06269674003124237,-0.0008944153087213635,-0.009336614981293678,0.2064220905303955,2.0554840564727783,-25.661602020263672,-34.28690719604492,-9.001486778259277,42856.0,48318.0,51395.0,45902.0,0.6,0.0,0.5,-0.3819218873977661,0.5299211144447327,0.008431830443441868,0.00013920899073127657,0.025105254724621773,0.049464792013168335,-2.2183568477630615,3.682447671890259,3.497854232788086,15.81375789642334,-13.323533058166504,16.573589324951172,51455.0,46588.0,54441.0,44626.0,-0.3000025448675481,0.51961377298239,0.5,-0.3567003309726715,-0.5285441875457764,0.007291766349226236,0.014957340434193611,-0.023219957947731018,0.01917017064988613,0.6305087208747864,-0.4142058789730072,2.984204053878784,-4.941127300262451,7.1670002937316895,8.579102516174316,54644.0,49715.0,51435.0,50234.0,-0.29999491024331576,-0.5196181808098181,0.5
0.648,TAKEOFF,incipient,1.0,0.6015524864196777,0.03061259165406227,0.0004374785639811307,-0.029237592592835426,0.0622483529150486,0.003945357631891966,-0.5208683013916016,0.947985053062439,1.8753743171691895,-12.159229278564453,-35.68613815307617,-11.195508003234863,43009.0,48546.0,51572.0,46370.0,0.6,0.0,0.5,-0.37799111008644104,0.5296313166618347,0.011010125279426575,-0.02739599719643593,0.04301392287015915,0.06706289947032928,-2.020700693130493,4.073073863983154,3.8811280727386475,11.67764663696289,-23.015899658203125,18.030956268310547,50158.0,49880.0,54205.0,44949.0,-0.3000025448675481,0.51961377298239,0.5,-0.3567003309726715,-0.5285441875457764,0.007291766349226236,0.01665053330361843,-0.025279011577367783,0.023983875289559364,0.53685462474823,-0.6197854280471802,3.113253593444824,-3.151289939880371,22.252296447753906,0.5819321870803833,56156.0,48276.0,49393.0,52756.0,-0.29999491024331576,-0.5196181808098181,0.5
0.668,TAKEOFF,incipient,1.0,0.6015524864196777,0.03061259165406227,0.0004374785639811307,-0.024001050740480423,0.06335141509771347,0.006263326853513718,-0.5693269371986389,1.4362269639968872,1.6555438041687012,28.03415870666504,-18.679277420043945,-7.406209945678711,47470.0,50549.0,48367.0,44788.0,0.6,0.0,0.5,-0.37799111008644104,0.5296313166618347,0.011010125279426575,-0.04689951241016388,0.05541492626070976,0.08335293084383011,-1.8469308614730835,4.609317302703857,4.30053186416626,12.41372299194336,-21.268760681152344,18.7414493560791,48067.0,51282.0,56116.0,42772.0,-0.3000025448675481,0.51961377298239,0.5,-0.3567003309726715,-0.5285441875457764,0.007291766349226236,0.019372086971998215,-0.02697248011827469,0.031075118109583855,0.5024020075798035,-1.147741675376892,3.1054351329803467,2.1009702682495117,30.5508975982666,-3.75858736038208,55624.0,51374.0,50007.0,50913.0,-0.29999491024331576,-0.5196181808098181,0.5
0.688,TAKEOFF,incipient,1.0,0.6015524864196777,0.03061259165406227,0.0004374785639811307,-0.04613161459565163,0.06854092329740524,0.02526998147368431,0.10044872015714645,1.9006714820861816,1.5232213735580444,39.71255874633789,-19.334857940673828,-4.82645845413208,45876.0,51517.0,50228.0,43141.0,0.6,0.0,0.5,-0.37799111008644104,0.5296313166618347,0.011010125279426575,-0.0637970119714737,0.06109436973929405,0.09658057987689972,-1.6786601543426514,4.891428470611572,4.682535648345947,6.0574774742126465,-0.89268559217453,21.654529571533203,52115.0,44816.0,56092.0,44659.0,-0.3000025448675481,0.51961377298239,0.5,-0.35345515608787537,-0.5299777984619141,0.00884193740785122,0.02231043577194214,-0.02400336228311062,0.03351208195090294,0.5587746500968933,-1.6293284893035889,2.944018840789795,9.921663284301758,5.14837646484375,-8.439406394958496,54804.0,52297.0,51356.0,51292.0,-0.29999491024331576,-0.5196181808098181,0.5
0.708,TAKEOFF,incipient,1.0,0.6015524864196777,0.03061259165406227,0.0004374785639811307,-0.05578930675983429,0.06752021610736847,0.03983541950583458,0.9755457043647766,2.1743855476379395,1.4939852952957153,52.74000549316406,8.863809585571289,-0.405930757522583,49508.0,50492.0,47354.0,44446.0,0.6,0.0,0.5,-0.37799111008644104,0.5296313166618347,0.011010125279426575,-0.08170102536678314,0.06463999301195145,0.11073868721723557,-1.645980715751648,4.797126293182373,5.113135814666748,1.0626802444458008,20.655153274536133,24.04248046875,52166.0,43472.0,57187.0,44414.0,-0.3000025448675481,0.51961377298239,0.5,-0.35345515608787537,-0.5299777984619141,0.00884193740785122,0.03063715621829033,-0.020073100924491882,0.0268936138600111,0.5853785872459412,-1.6895811557769775,2.8088743686676025,3.5913188457489014,8.781825065612793,-9.377680778503418,56365.0,53649.0,49935.0,50864.0,-0.29999491024331576,-0.5196181808098181,0.5
0.727,TAKEOFF,incipient,1.0,0.6015524864196777,0.03061259165406227,0.0004374785639811307,-0.064353346824646,0.06555590033531189,0.05459111928939819,2.1266634464263916,1.9477070569992065,1.5258454084396362,59.616756439208984,18.3107852935791,3.1414332389831543,50853.0,50840.0,46597.0,43523.0,0.6,0.0,0.5,-0.37799111008644104,0.5296313166618347,0.011010125279426575,-0.10025430470705032,0.06910216063261032,0.12847402691841125,-1.3789782524108887,3.9872891902923584,5.503098011016846,10.010876655578613,53.140010833740234,21.598237991333008,54334.0,41043.0,56088.0,45787.0,-0.3000025448675481,0.51961377298239,0.5,-0.35345515608787537,-0.5299777984619141,0.00884193740785122,0.03595155104994774,-0.01981152407824993,0.03436463326215744,0.7131356000900269,-1.825377106666565,2.6076807975769043,9.683747291564941,-2.2636263370513916,-9.177716255187988,55659.0,52566.0,51519.0,52450.0,-0.29999491024331576,-0.5196181808098181,0.5
0.748,TAKEOFF,incipient,1.0,0.5922850966453552,0.03743718937039375,0.007191545329988003,-0.0688290074467659,0.05865508317947388,0.07956263422966003,3.16902756690979,1.6092867851257324,1.65867280960083,32.61104965209961,13.343141555786133,5.412082195281982,49453.0,49686.0,49413.0,44033.0,0.6,0.0,0.5,-0.38268816471099854,0.5343207120895386,0.021117744967341423,-0.07784617692232132,0.040687259286642075,0.13427865505218506,-1.1698482036590576,2.8596041202545166,5.897106647491455,14.131912231445312,67.80623626708984,20.59946632385254,56363.0,40156.0,53529.0,47230.0,-0.3000025448675481,0.51961377298239,0.5,-0.35345515608787537,-0.5299777984619141,0.00884193740785122,0.03804399445652962,-0.018202651292085648,0.034274566918611526,0.8144288063049316,-1.7963814735412598,2.413213014602661,-8.842703819274902,2.9862172603607178,-3.421079158782959,56072.0,51009.0,52281.0,53992.0,-0.29999491024331576,-0.5196181808098181,0.5
0.768,TAKEOFF,incipient,1.0,0.5922850966453552,0.03743718937039375,0.007191545329988003,-0.07128578424453735,0.04720267653465271,0.10122380405664444,3.6191139221191406,1.3284013271331787,1.8406152725219727,-3.712782621383667,13.217989921569824,8.282910346984863,48446.0,47385.0,50390.0,46527.0,0.6,0.0,0.5,-0.38268816471099854,0.5343207120895386,0.021117744967341423,-0.0900191217660904,0.04405628517270088,0.1542126089334488,-0.7815396785736084,1.442008137702942,6.212429046630859,20.15968132019043,53.79808044433594,20.481782913208008,56756.0,42133.0,53317.0,46356.0,-0.3000025448675481,0.51961377298239,0.5,-0.35345515608787537,-0.5299777984619141,0.00884193740785122,0.04453984275460243,-0.020654918625950813,0.04008624702692032,0.556571900844574,-1.8776901960372925,2.353900194168091,-18.561443328857422,5.555605888366699,-2.1324994564056396,56114.0,51344.0,52849.0,54074.0,-0.29999491024331576,-0.5196181808098181,0.5
0.788,TAKEOFF,incipient,1.0,0.5922850966453552,0.03743718937039375,0.007191545329988003,-0.07472386211156845,0.02973131835460663,0.11385887861251831,3.4832663536071777,1.0799102783203125,2.027863025665283,-13.849209785461426,14.654691696166992,6.187145233154297,49094.0,48642.0,50376.0,45700.0,0.6,0.0,0.5,-0.38268816471099854,0.5343207120895386,0.021117744967341423,-0.0968378335237503,0.0524602048099041,0.17562153935432434,-0.5100715756416321,0.4809347093105316,6.660301685333252,17.403017044067383,41.85331344604492,18.202821731567383,55151.0,45301.0,52593.0,48506.0,-0.3000025448675481,0.51961377298239,0.5,-0.3449385464191437,-0.5336954593658447,0.012286936864256859,0.06133618205785751,-0.024778464809060097,0.049879468977451324,0.20809057354927063,-2.05483078956604,2.3727610111236572,-26.940521240234375,-1.8333511352539062,-1.650298833847046,53935.0,50795.0,55442.0,55166.0,-0.29999491024331576,-0.5196181808098181,0.5
0.808,TAKEOFF,incipient,1.0,0.5922850966453552,0.03743718937039375,0.007191545329988003,-0.07827865332365036,0.01709110476076603,0.11946069449186325,3.168393611907959,0.8189600110054016,2.166801929473877,-20.376304626464844,15.064183235168457,5.288811683654785,47890.0,48122.0,50811.0,46765.0,0.6,0.0,0.5,-0.38268816471099854,0.5343207120895386,0.021117744967341423,-0.09966009855270386,0.05432215705513954,0.19030185043811798,-0.16061489284038544,-0.3983244299888611,6.953334331512451,10.036067008972168,22.44655418395996,16.13381004333496,55890.0,42354.0,54422.0,45938.0,-0.3000025448675481,0.51961377298239,0.5,-0.3449385464191437,-0.5336954593658447,0.012286936864256859,0.07838043570518494,-0.031400926411151886,0.05736764147877693,-0.37702539563179016,-2.0129427909851074,2.368407964706421,-34.66215515136719,-16.73238182067871,-2.247307538986206,55753.0,52680.0,53424.0,54597.0,-0.29999491024331576,-0.5196181808098181,0.5
0.828,TAKEOFF,incipient,1.0,0.5922850966453552,0.03743718937039375,0.007191545329988003,-0.07631789147853851,0.003613600740209222,0.1262669414281845,2.669790267944336,0.42992663383483887,2.3568315505981445,-30.69814109802246,30.051000595092773,9.278916358947754,49412.0,44704.0,50720.0,49396.0,0.6,0.0,0.5,-0.38268816471099854,0.5343207120895386,0.021117744967341423,-0.08960014581680298,0.04944712668657303,0.19984318315982819,-0.004377469420433044,-0.7724398374557495,7.267699241638184,-0.6539894938468933,1.7985042333602905,13.289175033569336,54114.0,43404.0,56242.0,45187.0,-0.3000025448675481,0.51961377298239,0.5,-0.3449385464191437,-0.5336954593658447,0.012286936864256859,0.0986873060464859,-0.03284382075071335,0.08997483551502228,-0.9656259417533875,-1.6269748210906982,2.29213809967041,-16.744129180908203,-13.329726219177246,-2.738755226135254,57635.0,53333.0,51974.0,53813.0,-0.29999491024331576,-0.5196181808098181,0.5
0.848,TAKEOFF,incipient,1.0,0.5865697264671326,0.03760426491498947,0.021003128960728645,-0.07436758279800415,-0.008441131561994553,0.13884592056274414,2.148268461227417,-0.22951766848564148,2.5857560634613037,-21.789838790893555,30.822851181030273,8.452668190002441,48307.0,46886.0,51730.0,47682.0,0.6,0.0,0.5,-0.3900618851184845,0.5384592413902283,0.03957059606909752,-0.09517858177423477,0.058803413063287735,0.22014309465885162,-0.07314697653055191,-0.7063418030738831,7.570252418518066,0.6612746119499207,-12.3352689743042,9.302210807800293,51953.0,47134.0,55465.0,46995.0,-0.3000025448675481,0.51961377298239,0.5,-0.3449385464191437,-0.5336954593658447,0.012286936864256859,0.0986873060464859,-0.03284382075071335,0.08997483551502228,-1.074645757675171,-1.4891952276229858,2.2630248069763184,19.668794631958008,-6.499201774597168,-3.0222156047821045,58831.0,55862.0,50110.0,51751.0,-0.29999491024331576,-0.5196181808098181,0.5
0.868,TAKEOFF,incipient,1.0,0.5865697264671326,0.03760426491498947,0.021003128960728645,-0.07372069358825684,-0.016478195786476135,0.1472630798816681,1.7962408065795898,-0.7597360014915466,2.8333141803741455,-7.4095587730407715,15.704450607299805,14.211974143981934,50306.0,48619.0,50719.0,46050.0,0.6,0.0,0.5,-0.3900618851184845,0.5384592413902283,0.03957059606909752,-0.09376177936792374,0.06306339800357819,0.2355004996061325,-0.019144104793667793,-0.4312884509563446,7.729949951171875,1.6920708417892456,-17.09929656982422,7.937923431396484,51342.0,46928.0,55672.0,47268.0,-0.3000025448675481,0.51961377298239,0.5,-0.3449385464191437,-0.5336954593658447,0.012286936864256859,0.10175631195306778,-0.026655009016394615,0.10941959172487259,-0.5560932159423828,-1.2622966766357422,2.186944007873535,55.52570343017578,-23.779449462890625,-2.3015358448028564,59901.0,57464.0,49321.0,49166.0,-0.29999491024331576,-0.5196181808098181,0.5
0.888,TAKEOFF,incipient,1.0,0.5865697264671326,0.03760426491498947,0.021003128960728645,-0.0709933191537857,-0.02311604470014572,0.15912723541259766,1.6205182075500488,-1.0346989631652832,3.1165826320648193,-10.537653923034668,6.077110767364502,14.860281944274902,48909.0,48631.0,51965.0,45769.0,0.6,0.0,0.5,-0.3900618851184845,0.5384592413902283,0.03957059606909752,-0.08943281322717667,0.06192849576473236,0.24105700850486755,0.008068579249083996,0.0162761639803648,7.911202907562256,4.7205657958984375,-19.14588737487793,5.840221405029297,50760.0,49299.0,56453.0,44823.0,-0.3000025448675481,0.51961377298239,0.5,-0.3378423750400543,-0.5348041653633118,0.021697837859392166,0.11442894488573074,-0.02991490811109543,0.1211291030049324,0.4637487530708313,-0.6774582266807556,2.1542060375213623,55.786808013916016,-31.582996368408203,-4.488531589508057,58024.0,57949.0,52490.0,49411.0,-0.29999491024331576,-0.5196181808098181,0.5
0.908,TAKEOFF,incipient,1.0,0.5865697264671326,0.03760426491498947,0.021003128960728645,-0.05887651816010475,-0.036481697112321854,0.17393749952316284,1.459028720855713,-1.1487345695495605,3.452453851699829,-9.704451560974121,-1.9230234622955322,11.875969886779785,49411.0,47829.0,52645.0,45633.0,0.6,0.0,0.5,-0.3900618851184845,0.5384592413902283,0.03957059606909752,-0.0891140028834343,0.06201000511646271,0.25271862745285034,0.008068579249083996,0.0162761639803648,7.911202907562256,4.7205657958984375,-19.14588737487793,5.840221405029297,51985.0,46223.0,56239.0,46283.0,-0.3000025448675481,0.51961377298239,0.5,-0.3378423750400543,-0.5348041653633118,0.021697837859392166,0.09221427887678146,-0.011459248140454292,0.12107530236244202,1.360403060913086,0.017989501357078552,2.058922052383423,12.54356861114502,-32.48159408569336,-4.152534008026123,55923.0,54654.0,55140.0,53991.0,-0.29999491024331576,-0.5196181808098181,0.5
0.928,TAKEOFF,incipient,1.0,0.5865697264671326,0.03760426491498947,0.021003128960728645,-0.054477497935295105,-0.041593316942453384,0.18138523399829865,1.3383735418319702,-1.101479411125183,3.690779209136963,-1.5224980115890503,-2.972013235092163,10.750545501708984,49557.0,49153.0,51869.0,45463.0,0.6,0.0,0.5,-0.3900618851184845,0.5384592413902283,0.03957059606909752,-0.08557836711406708,0.05725869536399841,0.25451406836509705,0.08877787739038467,0.10941599309444427,8.038312911987305,-6.7307939529418945,20.25313377380371,4.584257125854492,53365.0,44831.0,54660.0,49912.0,-0.3000025448675481,0.51961377298239,0.5,-0.3378423750400543,-0.5348041653633118,0.021697837859392166,0.09224080294370651,-0.013920091092586517,0.12614969909191132,1.3124287128448486,0.649974524974823,1.9493399858474731,-38.58222579956055,-33.11125564575195,-5.653539180755615,53352.0,54784.0,57086.0,55078.0,-0.29999491024331576,-0.5196181808098181,0.5
0.948,TAKEOFF,incipient,1.0,0.5817576050758362,0.032917145639657974,0.03850996866822243,-0.04583106189966202,-0.0512201264500618,0.1923225075006485,1.396195888519287,-1.0835932493209839,3.99285626411438,4.753498554229736,-0.8888217210769653,10.760501861572266,51443.0,48395.0,52689.0,44107.0,0.6,0.0,0.5,-0.39640238881111145,0.5442669987678528,0.06338877230882645,-0.07830774784088135,0.05209853872656822,0.2547726333141327,0.01034214161336422,-0.40311986207962036,8.061424255371094,-2.290374279022217,30.017547607421875,2.556847333908081,54023.0,43601.0,54685.0,49852.0,-0.3000025448675481,0.51961377298239,0.5,-0.3378423750400543,-0.5348041653633118,0.021697837859392166,0.09039604663848877,-0.01986040733754635,0.13387243449687958,0.5125361680984497,1.3524821996688843,1.7907414436340332,-53.66127395629883,-42.38818359375,-4.913771629333496,52225.0,54892.0,58291.0,55504.0,-0.29999491024331576,-0.5196181808098181,0.5
0.968,TAKEOFF,incipient,1.0,0.5817576050758362,0.032917145639657974,0.03850996866822243,-0.04180125892162323,-0.0648648664355278,0.19341138005256653,1.554791808128357,-1.0606718063354492,4.237279891967773,2.2635130882263184,-2.111954927444458,9.517370223999023,51124.0,49215.0,52412.0,45236.0,0.6,0.0,0.5,-0.39640238881111145,0.5442669987678528,0.06338877230882645,-0.08301940560340881,0.05935172364115715,0.26504385471343994,-0.08028839528560638,-0.8793575167655945,8.133852005004883,1.8388655185699463,24.69132423400879,-0.9366086721420288,53553.0,45615.0,54532.0,49811.0,-0.3000025448675481,0.51961377298239,0.5,-0.3378423750400543,-0.5348041653633118,0.021697837859392166,0.08750835806131363,-0.023796143010258675,0.1458463966846466,-0.5608593821525574,2.20395565032959,1.6515278816223145,-53.488162994384766,-44.57896041870117,-3.4533841609954834,53596.0,54542.0,58119.0,55400.0,-0.29999491024331576,-0.5196181808098181,0.5
0.988,TAKEOFF,incipient,1.0,0.5817576050758362,0.032917145639657974,0.03850996866822243,-0.037618670612573624,-0.0700092688202858,0.20020808279514313,1.6382931470870972,-1.0738829374313354,4.415676593780518,-3.5005643367767334,6.977571487426758,7.317640781402588,51215.0,48352.0,51319.0,47198.0,0.6,0.0,0.5,-0.39640238881111145,0.5442669987678528,0.06338877230882645,-0.0803423523902893,0.0600370317697525,0.27580562233924866,-0.02100459486246109,-1.233139157295227,8.118642807006836,9.092671394348145,4.941912651062012,-0.4022524356842041,52413.0,47859.0,55200.0,47989.0,-0.3000025448675481,0.51961377298239,0.5,-0.3291122615337372,-0.5369006991386414,0.035576120018959045,0.07981792837381363,-0.02274605818092823,0.16603852808475494,-1.5607260465621948,3.03267502784729,1.5864365100860596,-27.787290573120117,-31.466434478759766,-3.244373083114624,55124.0,56025.0,56873.0,53571.0,-0.29999491024331576,-0.5196181808098181,0.5
1.008,TAKEOFF,incipient,1.0,0.5817576050758362,0.032917145639657974,0.03850996866822243,-0.03350486233830452,-0.07530853152275085,0.20303967595100403,1.576498031616211,-1.2360961437225342,4.578723430633545,-5.028237342834473,8.227455139160156,7.748100280761719,51196.0,49825.0,51736.0,45873.0,0.6,0.0,0.5,-0.39640238881111145,0.5442669987678528,0.06338877230882645,-0.07618995010852814,0.06077272817492485,0.2844632863998413,0.32934579253196716,-1.5189051628112793,8.008268356323242,17.821815490722656,-1.4284656047821045,-3.5029196739196777,54093.0,47401.0,53429.0,48971.0,-0.3000025448675481,0.51961377298239,0.5,-0.3291122615337372,-0.5369006991386414,0.035576120018959045,0.0720072016119957,-0.01660844497382641,0.19620320200920105,-2.018221378326416,3.6180419921875,1.5706450939178467,-0.7099328637123108,-20.840566635131836,0.6420078277587891,57581.0,56486.0,54695.0,52621.0,-0.29999491024331576,-0.5196181808098181,0.5
1.028,TAKEOFF,incipient,1.0,0.5817576050758362,0.032917145639657974,0.03850996866822243,-0.028905360028147697,-0.08054141700267792,0.20710885524749756,1.4107308387756348,-1.3295769691467285,4.722233295440674,-9.404154777526855,3.1852099895477295,6.616348743438721,51362.0,49358.0,51917.0,46746.0,0.6,0.0,0.5,-0.39640238881111145,0.5442669987678528,0.06338877230882645,-0.057840388268232346,0.04342683404684067,0.28476908802986145,0.708913266658783,-1.4134821891784668,7.965991020202637,19.5324764251709,-10.091594696044922,-1.6541900634765625,54383.0,47816.0,54207.0,49021.0,-0.3000025448675481,0.51961377298239,0.5,-0.3291122615337372,-0.5369006991386414,0.035576120018959045,0.05840407311916351,-0.009512584656476974,0.21893861889839172,-1.8666707277297974,3.9577865600585938,1.6039085388183594,25.842628479003906,-5.63278341293335,1.6569124460220337,58881.0,56789.0,52512.0,52760.0,-0.29999491024331576,-0.5196181808098181,0.5
1.048,TAKEOFF,incipient,1.0,0.5784938931465149,0.024196302518248558,0.05742482841014862,-0.023866958916187286,-0.08525823801755905,0.21202678978443146,1.2111032009124756,-1.4571423530578613,4.87491512298584,-8.457104682922363,10.166388511657715,6.485923767089844,51637.0,49150.0,52011.0,47238.0,0.6,0.0,0.5,-0.4034242033958435,0.5490731596946716,0.08990389108657837,-0.05588225647807121,0.04217343032360077,0.2990289330482483,1.0208319425582886,-1.2816702127456665,7.948295593261719,8.379985809326172,0.06591232866048813,-2.6880435943603516,54016.0,47185.0,54760.0,49372.0,-0.3000025448675481,0.51961377298239,0.5,-0.3291122615337372,-0.5369006991386414,0.035576120018959045,0.07680834829807281,-0.024156033992767334,0.2431551218032837,-1.095643401145935,3.7267038822174072,1.6536247730255127,41.01352310180664,5.028260707855225,4.502999782562256,60282.0,57293.0,51569.0,50961.0,-0.29999491024331576,-0.5196181808098181,0.5
1.068,TAKEOFF,incipient,1.0,0.5784938931465149,0.024196302518248558,0.05742482841014862,-0.018490921705961227,-0.08927065879106522,0.21858932077884674,1.0586462020874023,-1.6636642217636108,5.013377666473389,-12.055233001708984,9.048563003540039,7.416233539581299,51812.0,48967.0,52474.0,47986.0,0.6,0.0,0.5,-0.4034242033958435,0.5490731596946716,0.08990389108657837,-0.052710890769958496,0.04022026062011719,0.3115490674972534,1.274989128112793,-1.3050389289855957,7.852975368499756,2.3961267471313477,1.0875269174575806,0.4612809717655182,53302.0,49927.0,54961.0,46506.0,-0.3000025448675481,0.51961377298239,0.5,-0.3291122615337372,-0.5369006991386414,0.035576120018959045,0.07557883113622665,-0.02762700989842415,0.26240605115890503,-0.21789346635341644,3.497837543487549,1.7661617994308472,35.6767692565918,11.230009078979492,5.869686126708984,59962.0,56071.0,51531.0,52952.0,-0.29999491024331576,-0.5196181808098181,0.5
1.088,TAKEOFF,incipient,1.0,0.5784938931465149,0.024196302518248558,0.05742482841014862,-0.0124716991558671,-0.09261558949947357,0.2245667278766632,0.8017528057098389,-1.8197888135910034,5.179917335510254,-14.54803466796875,4.642156600952148,6.541000843048096,51842.0,49012.0,52747.0,48216.0,0.6,0.0,0.5,-0.4034242033958435,0.5490731596946716,0.08990389108657837,-0.037458211183547974,0.03015202283859253,0.3138827979564667,1.3436444997787476,-1.28428053855896,7.790089130401611,2.4593241214752197,-2.3391242027282715,-2.7923593521118164,53516.0,49324.0,55048.0,47617.0,-0.3000025448675481,0.51961377298239,0.5,-0.3132466971874237,-0.5447768568992615,0.06155813857913017,0.05785457044839859,-0.029570098966360092,0.29012808203697205,0.39553722739219666,3.2272417545318604,1.8521313667297363,13.214374542236328,15.5299654006958,3.8521933555603027,58460.0,54709.0,53845.0,53899.0,-0.29999491024331576,-0.5196181808098181,0.5
1.108,TAKEOFF,incipient,1.0,0.5784938931465149,0.024196302518248558,0.05742482841014862,-0.006975829601287842,-0.09223685413599014,0.23374253511428833,0.5196487903594971,-1.8895424604415894,5.3218536376953125,-14.374018669128418,6.1899094581604,7.612596035003662,52671.0,49242.0,52354.0,47913.0,0.6,0.0,0.5,-0.4034242033958435,0.5490731596946716,0.08990389108657837,-0.02906539849936962,0.02603279799222946,0.32355979084968567,1.3630448579788208,-1.2670855522155762,7.700003147125244,-2.8411900997161865,3.3947620391845703,-3.2370896339416504,53826.0,45512.0,54685.0,51648.0,-0.3000025448675481,0.51961377298239,0.5,-0.3132466971874237,-0.5447768568992615,0.06155813857913017,0.05785457044839859,-0.029570098966360092,0.29012808203697205,0.5128304958343506,2.9440605640411377,1.9338116645812988,-8.583514213562012,-0.07688891142606735,1.610543966293335,57112.0,53823.0,55411.0,55258.0,-0.29999491024331576,-0.5196181808098181,0.5
1.128,TAKEOFF,incipient,1.0,0.5784938931465149,0.024196302518248558,0.05742482841014862,0.022034943103790283,-0.10595405846834183,0.23367094993591309,0.3765958845615387,-2.1311416625976562,5.401787757873535,-12.357353210449219,5.814070224761963,8.528580665588379,53238.0,49268.0,52327.0,48252.0,0.6,0.0,0.5,-0.4034242033958435,0.5490731596946716,0.08990389108657837,-0.0240373183041811,0.02205657958984375,0.33588096499443054,1.2667533159255981,-1.3293226957321167,7.655555725097656,-8.993537902832031,7.554459095001221,-2.5335285663604736,55605.0,43216.0,53153.0,52753.0,-0.3000025448675481,0.51961377298239,0.5,-0.3132466971874237,-0.5447768568992615,0.06155813857913017,0.04922693595290184,-0.03148864209651947,0.2964334785938263,0.18384726345539093,2.972994089126587,1.9738929271697998,-24.841808319091797,-10.552708625793457,-1.824991226196289,55738.0,54971.0,56928.0,54911.0,-0.29999491024331576,-0.5196181808098181,0.5
1.148,TAKEOFF,incipient,1.0,0.5815854668617249,0.01180886011570692,0.07936049997806549,0.03159892186522484,-0.11179515719413757,0.24807941913604736,0.22194327414035797,-2.2211902141571045,5.4959516525268555,-7.224165916442871,-2.107623815536499,8.60101318359375,52997.0,50094.0,52804.0,47273.0,0.6,0.0,0.5,-0.4064309597015381,0.5514387488365173,0.12399311363697052,-0.018812548369169235,0.018076086416840553,0.34446388483047485,1.105083703994751,-1.5285422801971436,7.561044692993164,-7.587104797363281,6.715188980102539,-3.7251474857330322,54097.0,45406.0,54392.0,51334.0,-0.3000025448675481,0.51961377298239,0.5,-0.3132466971874237,-0.5447768568992615,0.06155813857913017,0.02304960787296295,-0.004643234424293041,0.29391855001449585,-0.5650899410247803,3.3045430183410645,1.977876901626587,-27.296567916870117,-8.612717628479004,-2.4541878700256348,56803.0,54604.0,56208.0,55631.0,-0.29999491024331576,-0.5196181808098181,0.5
1.168,TAKEOFF,incipient,1.0,0.5815854668617249,0.01180886011570692,0.07936049997806549,0.03951964154839516,-0.11278736591339111,0.2628399133682251,0.08904913067817688,-2.1497366428375244,5.579680919647217,-5.35626220703125,-5.0488457679748535,10.428315162658691,53742.0,50114.0,52180.0,47261.0,0.6,0.0,0.5,-0.4064309597015381,0.5514387488365173,0.12399311363697052,-0.008797888644039631,0.015553350560367107,0.3445931077003479,0.9656363129615784,-1.6275495290756226,7.511141777038574,-4.075381278991699,-0.5422697067260742,-2.9122567176818848,53800.0,46494.0,54989.0,50782.0,-0.3000025448675481,0.51961377298239,0.5,-0.3132466971874237,-0.5447768568992615,0.06155813857913017,0.02017930895090103,-0.008509672246873379,0.29756852984428406,-1.0373302698135376,3.354996919631958,1.9359503984451294,-17.15054702758789,-1.9518481492996216,-2.1159861087799072,57956.0,56097.0,55421.0,54229.0,-0.29999491024331576,-0.5196181808098181,0.5
1.188,TAKEOFF,incipient,1.0,0.5815854668617249,0.01180886011570692,0.07936049997806549,0.04676375910639763,-0.1119251474738121,0.2751830518245697,-0.11497572809457779,-1.9983439445495605,5.756475925445557,-12.346875190734863,-11.305907249450684,10.453385353088379,52115.0,49905.0,53782.0,47048.0,0.6,0.0,0.5,-0.4064309597015381,0.5514387488365173,0.12399311363697052,-0.022353580221533775,0.0310384389013052,0.37086883187294006,0.6928153038024902,-1.4877318143844604,7.524392127990723,-4.4526896476745605,-2.9391798973083496,-3.2239556312561035,53285.0,48768.0,55426.0,48905.0,-0.3000025448675481,0.51961377298239,0.5,-0.3095089793205261,-0.544162392616272,0.08980487287044525,0.014838121831417084,-0.010049100033938885,0.3061691224575043,-1.250963568687439,3.3481380939483643,1.9221073389053345,-1.9869941473007202,-7.104516983032227,0.8258270621299744,58021.0,57445.0,55762.0,52563.0,-0.29999491024331576,-0.5196181808098181,0.5
1.208,TAKEOFF,incipient,1.0,0.5815854668617249,0.01180886011570692,0.07936049997806549,0.054780520498752594,-0.10473775863647461,0.27855753898620605,-0.36577197909355164,-1.711073875427246,5.9000115394592285,-20.47031021118164,-21.835742950439453,10.125673294067383,52146.0,48727.0,55575.0,46527.0,0.6,0.0,0.5,-0.4064309597015381,0.5514387488365173,0.12399311363697052,-0.018077589571475983,0.027401069179177284,0.3823435604572296,0.6677329540252686,-1.4285755157470703,7.491692543029785,2.2425034046173096,-6.304476737976074,-3.1259284019470215,53517.0,48013.0,55166.0,49352.0,-0.3000025448675481,0.51961377298239,0.5,-0.3095089793205261,-0.544162392616272,0.08980487287044525,0.007332744542509317,-0.009273960255086422,0.317409485578537,-1.1675851345062256,3.4906251430511475,1.9606249332427979,12.987513542175293,-7.869818687438965,1.6874240636825562,59185.0,57822.0,54102.0,52791.0,-0.29999491024331576,-0.5196181808098181,0.5
1.228,TAKEOFF,incipient,1.0,0.5815854668617249,0.01180886011570692,0.07936049997806549,0.05185600742697716,-0.09841961413621902,0.2983887493610382,-0.8390605449676514,-1.1614826917648315,6.17065954208374,-25.6668701171875,-20.852869033813477,10.354081153869629,51310.0,49285.0,54984.0,47869.0,0.6,0.0,0.5,-0.4064309597015381,0.5514387488365173,0.12399311363697052,-0.012590666301548481,0.025342943146824837,0.3917398452758789,0.8144009113311768,-1.4211002588272095,7.3991522789001465,3.551074743270874,-3.020419120788574,-1.505487322807312,52909.0,48380.0,55730.0,48837.0,-0.3000025448675481,0.51961377298239,0.5,-0.3095089793205261,-0.544162392616272,0.08980487287044525,-0.014494742266833782,-0.016210032626986504,0.33490124344825745,-0.7904956340789795,3.6389379501342773,1.9725468158721924,16.670957565307617,7.42722749710083,2.1189260482788086,59877.0,56631.0,53510.0,53747.0,-0.29999491024331576,-0.5196181808098181,0.5
1.248,TAKEOFF,incipient,1.0,0.5829730033874512,0.006099995691329241,0.10949165374040604,0.055369723588228226,-0.10055656731128693,0.302871435880661,-1.2302707433700562,-0.7421340942382812,6.3416900634765625,-18.16330909729004,-18.32940673828125,9.243637084960938,52578.0,49557.0,54329.0,47683.0,0.6,0.0,0.5,-0.40962934494018555,0.5564983487129211,0.15829554200172424,-0.00015556735161226243,0.019222959876060486,0.3958325982093811,0.799974799156189,-1.2757031917572021,7.421697616577148,6.548966407775879,-4.461782932281494,-1.4591304063796997,54221.0,48992.0,54817.0,48623.0,-0.3000025448675481,0.51961377298239,0.5,-0.3095089793205261,-0.544162392616272,0.08980487287044525,-0.05364871770143509,-0.0039680832996964455,0.34209150075912476,-0.4975791871547699,3.4531068801879883,1.9798576831817627,10.664888381958008,21.01967430114746,3.151494026184082,59564.0,56064.0,54448.0,54037.0,-0.29999491024331576,-0.5196181808098181,0.5
1.268,TAKEOFF,incipient,1.0,0.5829730033874512,0.006099995691329241,0.10949165374040604,0.05681196227669716,-0.09310254454612732,0.31419506669044495,-1.6148236989974976,-0.41893503069877625,6.572671890258789,-15.617664337158203,-14.368829727172852,10.167555809020996,52196.0,49500.0,54555.0,47391.0,0.6,0.0,0.5,-0.40962934494018555,0.5564983487129211,0.15829554200172424,0.0013420240720734,0.02198554389178753,0.41115427017211914,1.0021995306015015,-1.2391438484191895,7.386570930480957,6.340419769287109,-2.6638782024383545,-1.9251784086227417,53620.0,48462.0,55197.0,48709.0,-0.3000025448675481,0.51961377298239,0.5,-0.3095089793205261,-0.544162392616272,0.08980487287044525,-0.05364871770143509,-0.0039680832996964455,0.34209150075912476,-0.3472896218299866,3.1055054664611816,2.038778781890869,1.4919214248657227,20.872255325317383,3.342308759689331,58475.0,55355.0,55705.0,54755.0,-0.29999491024331576,-0.5196181808098181,0.5
1.288,TAKEOFF,incipient,1.0,0.5829730033874512,0.006099995691329241,0.10949165374040604,0.056922923773527145,-0.08377783745527267,0.329578161239624,-1.869350552558899,-0.16167862713336945,6.816110134124756,-5.662652015686035,-12.189187049865723,10.22581672668457,52439.0,49761.0,54194.0,46460.0,0.6,0.0,0.5,-0.40962934494018555,0.5564983487129211,0.15829554200172424,0.019345847889780998,0.009943217039108276,0.40565571188926697,1.1249136924743652,-1.1731334924697876,7.348903179168701,4.685962677001953,-1.3702056407928467,-1.6207361221313477,54027.0,48235.0,54646.0,48800.0,-0.3000025448675481,0.51961377298239,0.5,-0.3212841749191284,-0.5425006747245789,0.12379544228315353,-0.07688656449317932,-0.0013009532121941447,0.35079291462898254,-0.38213595747947693,2.7111127376556396,2.0703513622283936,-4.890006065368652,19.938413619995117,2.4449379444122314,57979.0,55039.0,56219.0,54854.0,-0.29999491024331576,-0.5196181808098181,0.5
1.308,TAKEOFF,incipient,1.0,0.5829730033874512,0.006099995691329241,0.10949165374040604,0.05596604198217392,-0.07302941381931305,0.34368896484375,-1.9473071098327637,0.06701036542654037,7.049544334411621,2.121758222579956,-10.386155128479004,9.72081470489502,52537.0,49682.0,53886.0,46077.0,0.6,0.0,0.5,-0.40962934494018555,0.5564983487129211,0.15829554200172424,0.01877986267209053,0.001164688030257821,0.4140765070915222,1.2458164691925049,-1.0818586349487305,7.311976432800293,0.616686999797821,-4.564890384674072,-0.595624566078186,53712.0,47322.0,54572.0,49257.0,-0.3000025448675481,0.51961377298239,0.5,-0.3212841749191284,-0.5425006747245789,0.12379544228315353,-0.08620399236679077,-0.0015710275620222092,0.3578307628631592,-0.5298032760620117,2.31449556350708,2.0949113368988037,-10.267036437988281,18.087251663208008,2.909518003463745,58170.0,55696.0,55801.0,54060.0,-0.29999491024331576,-0.5196181808098181,0.5
1.328,TAKEOFF,incipient,1.0,0.5829730033874512,0.006099995691329241,0.10949165374040604,0.043309085071086884,-0.06962890923023224,0.35702165961265564,-1.8201665878295898,0.34614697098731995,7.211580753326416,-0.34084269404411316,-10.347121238708496,9.231611251831055,51934.0,49770.0,54196.0,45421.0,0.6,0.0,0.5,-0.40962934494018555,0.5564983487129211,0.15829554200172424,0.02310452237725258,-0.002798723056912422,0.42206379771232605,1.2642877101898193,-1.0014265775680542,7.28313684463501,-2.6444756984710693,-7.371973037719727,-0.985032320022583,52410.0,49060.0,55517.0,46906.0,-0.3000025448675481,0.51961377298239,0.5,-0.3212841749191284,-0.5425006747245789,0.12379544228315353,-0.09533827006816864,0.002750662388280034,0.37041643261909485,-0.7147666215896606,1.989463210105896,2.1439948081970215,-8.943009376525879,13.31308364868164,2.3700132369995117,57993.0,55385.0,55717.0,54005.0,-0.29999491024331576,-0.5196181808098181,0.5
1.348,TAKEOFF,incipient,1.0,0.5859047174453735,-0.00018980196909978986,0.14543169736862183,0.04140624403953552,-0.06324935704469681,0.36506912112236023,-1.782092571258545,0.5369720458984375,7.386125087738037,-1.2886320352554321,-7.196837425231934,8.611742973327637,51917.0,48715.0,54036.0,46298.0,0.6,0.0,0.5,-0.40839555859565735,0.5574864745140076,0.19840168952941895,0.01742381602525711,0.0018883626908063889,0.431244820356369,1.2424250841140747,-0.9550455808639526,7.24751091003418,-6.5546183586120605,-10.626174926757812,-1.9948986768722534,54009.0,46887.0,53557.0,48683.0,-0.3000025448675481,0.51961377298239,0.5,-0.3212841749191284,-0.5425006747245789,0.12379544228315353,-0.09533827006816864,0.002750662388280034,0.37041643261909485,-0.8740459680557251,1.723179578781128,2.197489023208618,-2.9278981685638428,14.848281860351562,3.3048195838928223,58873.0,55805.0,54535.0,53056.0,-0.29999491024331576,-0.5196181808098181,0.5
1.368,TAKEOFF,incipient,1.0,0.5859047174453735,-0.00018980196909978986,0.14543169736862183,0.03738587722182274,-0.0586707778275013,0.372540682554245,-1.8186302185058594,0.6755938529968262,7.571381092071533,1.4568467140197754,-3.019749164581299,5.823464393615723,52253.0,49028.0,53504.0,45621.0,0.6,0.0,0.5,-0.40839555859565735,0.5574864745140076,0.19840168952941895,0.031829919666051865,-0.013019632548093796,0.42646703124046326,1.2080931663513184,-0.758786678314209,7.147036075592041,-5.181956768035889,-2.14729380607605,-1.482561469078064,53266.0,47917.0,54127.0,47580.0,-0.3000025448675481,0.51961377298239,0.5,-0.3212841749191284,-0.5425006747245789,0.12379544228315353,-0.10466400533914566,0.007021225988864899,0.3825973570346832,-0.8745781779289246,1.4057210683822632,2.2596166133880615,5.358174800872803,14.942415237426758,3.539215326309204,58603.0,55865.0,54542.0,52597.0,-0.29999491024331576,-0.5196181808098181,0.5
1.388,TAKEOFF,incipient,1.0,0.5859047174453735,-0.00018980196909978986,0.14543169736862183,0.03165433555841446,-0.04596305266022682,0.3779575228691101,-1.814819574356079,0.7286561727523804,7.679563045501709,-2.1527459621429443,-1.681178092956543,5.136070728302002,51575.0,48790.0,53897.0,45610.0,0.6,0.0,0.5,-0.40839555859565735,0.5574864745140076,0.19840168952941895,0.04064781591296196,-0.018605271354317665,0.42234867811203003,1.1582680940628052,-0.7436372637748718,7.096115589141846,0.35061851143836975,2.309250831604004,-1.8325525522232056,53808.0,46257.0,53350.0,49066.0,-0.3000025448675481,0.51961377298239,0.5,-0.33055633306503296,-0.5417346954345703,0.16122767329216003,-0.10944055020809174,0.00980388280004263,0.38789522647857666,-0.7537742853164673,1.0882463455200195,2.3241169452667236,6.888065338134766,15.804152488708496,2.9460721015930176,58380.0,55308.0,54520.0,52965.0,-0.29999491024331576,-0.5196181808098181,0.5
1.408,TAKEOFF,incipient,1.0,0.5859047174453735,-0.00018980196909978986,0.14543169736862183,0.04829126596450806,-0.04386405646800995,0.3737291693687439,-1.8008842468261719,0.5635058879852295,7.702188968658447,-3.521918773651123,1.5784475803375244,3.8488106727600098,51998.0,48561.0,53451.0,45939.0,0.6,0.0,0.5,-0.40839555859565735,0.5574864745140076,0.19840168952941895,0.040079519152641296,-0.023551836609840393,0.4317329227924347,1.1020450592041016,-0.7255970239639282,7.079764366149902,-3.8537323474884033,-5.091482639312744,-2.3734912872314453,52485.0,45890.0,54669.0,48498.0,-0.3000025448675481,0.51961377298239,0.5,-0.33055633306503296,-0.5417346954345703,0.16122767329216003,-0.11140890419483185,0.011053101159632206,0.39107316732406616,-0.6343028545379639,0.777173638343811,2.372757911682129,4.7252116203308105,14.969945907592773,1.8229931592941284,57978.0,55809.0,54669.0,52116.0,-0.29999491024331576,-0.5196181808098181,0.5
1.428,TAKEOFF,incipient,1.0,0.5859047174453735,-0.00018980196909978986,0.14543169736862183,0.0454360768198967,-0.037867363542318344,0.3794848322868347,-1.8846430778503418,0.5412485599517822,7.778345584869385,-3.584951400756836,1.3632351160049438,3.1190989017486572,52109.0,47842.0,53149.0,46388.0,0.6,0.0,0.5,-0.40839555859565735,0.5574864745140076,0.19840168952941895,0.04305503889918327,-0.02695353329181671,0.43447357416152954,1.0333456993103027,-0.7015966176986694,7.014281272888184,-6.405552864074707,-6.139397621154785,-3.4602901935577393,53199.0,44414.0,52949.0,49879.0,-0.3000025448675481,0.51961377298239,0.5,-0.33055633306503296,-0.5417346954345703,0.16122767329216003,-0.09743385016918182,0.008921847678720951,0.4091125726699829,-0.5703195929527283,0.5002904534339905,2.4069786071777344,0.7006916403770447,13.31165885925293,1.208367109298706,58253.0,54653.0,53680.0,52845.0,-0.29999491024331576,-0.5196181808098181,0.5
1.448,TAKEOFF,incipient,1.0,0.5907559990882874,-0.004960319027304649,0.1821100413799286,0.035353437066078186,-0.037898823618888855,0.38372668623924255,-1.9468146562576294,0.5648706555366516,7.78546142578125,-1.6239380836486816,-2.752420663833618,2.116251230239868,51543.0,48662.0,53468.0,45196.0,0.6,0.0,0.5,-0.4036960005760193,0.5552087426185608,0.2403205931186676,0.026424037292599678,-0.012724964879453182,0.4469786584377289,0.7635744214057922,-0.4484354555606842,7.021591663360596,-7.232874870300293,-7.653703689575195,-3.669468641281128,52540.0,46069.0,53432.0,47860.0,-0.3000025448675481,0.51961377298239,0.5,-0.33055633306503296,-0.5417346954345703,0.16122767329216003,-0.09743385016918182,0.008921847678720951,0.4091125726699829,-0.5169099569320679,0.09506629407405853,2.4362452030181885,-2.7234764099121094,14.06540298461914,0.11231164634227753,57277.0,54527.0,54417.0,52787.0,-0.29999491024331576,-0.5196181808098181,0.5
1.468,TAKEOFF,incipient,1.0,0.5907559990882874,-0.004960319027304649,0.1821100413799286,0.03668633848428726,-0.03245513141155243,0.3794793486595154,-1.9527462720870972,0.5624611973762512,7.789770603179932,3.2929575443267822,-0.5063315033912659,1.269130825996399,51979.0,48642.0,53000.0,45239.0,0.6,0.0,0.5,-0.4036960005760193,0.5552087426185608,0.2403205931186676,0.05192054063081741,-0.026949308812618256,0.42787453532218933,0.7361795902252197,-0.4999893605709076,6.903181552886963,-7.190108299255371,-2.579638719558716,-3.878309965133667,51724.0,44676.0,53536.0,48423.0,-0.3000025448675481,0.51961377298239,0.5,-0.33055633306503296,-0.5417346954345703,0.16122767329216003,-0.05085268244147301,0.0014296374283730984,0.3878043293952942,-0.5026336312294006,-0.5131237506866455,2.438851833343506,-5.527955055236816,9.795891761779785,0.1086265966296196,58255.0,53763.0,53805.0,53990.0,-0.29999491024331576,-0.5196181808098181,0.5
1.488,TAKEOFF,incipient,1.0,0.5907559990882874,-0.004960319027304649,0.1821100413799286,0.02324487641453743,-0.02391035109758377,0.39613693952560425,-1.8979536294937134,0.6579583883285522,7.800239562988281,1.2763324975967407,-2.906435012817383,0.6336252093315125,51312.0,48805.0,52987.0,44565.0,0.6,0.0,0.5,-0.4036960005760193,0.5552087426185608,0.2403205931186676,0.06480927020311356,-0.03274165466427803,0.4172181785106659,0.621324896812439,-0.524107813835144,6.7779436111450195,-3.92645263671875,-1.5293877124786377,-3.151240348815918,51801.0,45422.0,53810.0,47836.0,-0.3000025448675481,0.51961377298239,0.5,-0.3266000747680664,-0.5428701639175415,0.197377011179924,-0.029262429103255272,-0.0076137869618833065,0.39009207487106323,-0.5486236810684204,-0.8660849332809448,2.4272520542144775,-9.564788818359375,6.707791805267334,0.11005103588104248,58297.0,53788.0,53536.0,53699.0,-0.29999491024331576,-0.5196181808098181,0.5
1.508,TAKEOFF,incipient,1.0,0.5907559990882874,-0.004960319027304649,0.1821100413799286,0.02010153979063034,-0.017665496096014977,0.3980421721935272,-1.8600232601165771,0.7334670424461365,7.807141304016113,4.605688095092773,-5.163950443267822,-1.3887197971343994,50888.0,48268.0,53176.0,44935.0,0.6,0.0,0.5,-0.4036960005760193,0.5552087426185608,0.2403205931186676,0.06680656224489212,-0.03455157205462456,0.4158373177051544,0.5324569344520569,-0.505899965763092,6.72072696685791,-1.6204615831375122,-3.5773677825927734,-2.1017415523529053,52642.0,45503.0,52869.0,47917.0,-0.3000025448675481,0.51961377298239,0.5,-0.3266000747680664,-0.5428701639175415,0.197377011179924,-0.02648353762924671,-0.005715782754123211,0.3932168781757355,-0.7419978380203247,-0.9693806171417236,2.436630964279175,-9.869436264038086,-1.25874662399292,0.38248464465141296,57180.0,54066.0,54481.0,53160.0,-0.29999491024331576,-0.5196181808098181,0.5
1.528,TAKEOFF,incipient,1.0,0.5907559990882874,-0.004960319027304649,0.1821100413799286,0.019178543239831924,-0.0071245478466153145,0.3989450931549072,-1.798248529434204,0.7703202962875366,7.731103420257568,8.108633041381836,-0.051957909017801285,-1.8549929857254028,51227.0,48607.0,52591.0,44354.0,0.6,0.0,0.5,-0.4036960005760193,0.5552087426185608,0.2403205931186676,0.0478958785533905,-0.019807402044534683,0.42763885855674744,0.3099144995212555,-0.27260661125183105,6.781032562255859,-1.247941255569458,-6.949161529541016,-2.7577121257781982,51609.0,45141.0,53724.0,47770.0,-0.3000025448675481,0.51961377298239,0.5,-0.3266000747680664,-0.5428701639175415,0.197377011179924,-0.016948843374848366,-0.011995076201856136,0.4042793810367584,-0.8836488723754883,-0.9147966504096985,2.436152696609497,-9.969131469726562,-11.873710632324219,-1.294797420501709,55916.0,54303.0,55393.0,52695.0,-0.29999491024331576,-0.5196181808098181,0.5
1.548,TAKEOFF,incipient,1.0,0.589920163154602,-0.0019386992789804935,0.2230542004108429,0.015718767419457436,-0.0012380150146782398,0.40048637986183167,-1.7774443626403809,0.7664759755134583,7.743480682373047,7.7452850341796875,4.6561808586120605,-2.3432750701904297,51254.0,48507.0,52278.0,44295.0,0.6,0.0,0.5,-0.3969660997390747,0.5540751218795776,0.28238198161125183,0.04122024029493332,-0.011789349839091301,0.43347230553627014,0.17617371678352356,-0.086870476603508,6.795302867889404,-4.100058078765869,-11.335277557373047,-2.4607794284820557,51293.0,44757.0,53514.0,47189.0,-0.3000025448675481,0.51961377298239,0.5,-0.3266000747680664,-0.5428701639175415,0.197377011179924,-0.0420709066092968,0.02360783889889717,0.3997042775154114,-1.3505592346191406,-0.40135112404823303,2.4244143962860107,-7.3183698654174805,-20.484277725219727,-2.0941739082336426,55625.0,54631.0,55252.0,52113.0,-0.29999491024331576,-0.5196181808098181,0.5
1.568,TAKEOFF,incipient,1.0,0.589920163154602,-0.0019386992789804935,0.2230542004108429,0.004158755298703909,0.018394378945231438,0.4053691327571869,-1.6153790950775146,0.7127979397773743,7.677505970001221,5.277504920959473,5.986841201782227,-3.029151678085327,50355.0,47896.0,52766.0,44655.0,0.6,0.0,0.5,-0.3969660997390747,0.5540751218795776,0.28238198161125183,0.039512913674116135,-0.008457287214696407,0.43323642015457153,0.17617371678352356,-0.086870476603508,6.795302867889404,-4.100058078765869,-11.335277557373047,-2.4607794284820557,50876.0,45379.0,53326.0,46119.0,-0.3000025448675481,0.51961377298239,0.5,-0.3266000747680664,-0.5428701639175415,0.197377011179924,-0.04059222713112831,0.02818964421749115,0.40218889713287354,-1.4809279441833496,0.0041677444241940975,2.385556697845459,-2.376739978790283,-17.951278686523438,-3.7021403312683105,55807.0,55018.0,54766.0,51685.0,-0.29999491024331576,-0.5196181808098181,0.5
1.588,TAKEOFF,incipient,1.0,0.589920163154602,-0.0019386992789804935,0.2230542004108429,0.0009560888865962625,0.023614350706338882,0.40286222100257874,-1.480107069015503,0.6043579578399658,7.611488342285156,7.749637126922607,7.216691017150879,-4.4337849617004395,50534.0,47523.0,52451.0,44905.0,0.6,0.0,0.5,-0.3969660997390747,0.5540751218795776,0.28238198161125183,0.03737906739115715,-0.013680255971848965,0.4263482093811035,0.08453579992055893,0.14767278730869293,6.828392028808594,0.862935483455658,-12.607857704162598,-2.2455501556396484,51153.0,44891.0,52695.0,46167.0,-0.3000025448675481,0.51961377298239,0.5,-0.3266000747680664,-0.5428701639175415,0.197377011179924,-0.05231430009007454,0.04247283563017845,0.39978110790252686,-1.565760850906372,0.4377836585044861,2.3429882526397705,5.357523441314697,-12.504949569702148,-3.291720151901245,56976.0,54399.0,53137.0,52003.0,-0.29999491024331576,-0.5196181808098181,0.5
1.608,TAKEOFF,incipient,1.0,0.589920163154602,-0.0019386992789804935,0.2230542004108429,-0.005700728856027126,0.03558378294110298,0.40783601999282837,-1.343074917793274,0.4707525670528412,7.56195068359375,11.690048217773438,8.569819450378418,-4.24318790435791,50821.0,47115.0,52506.0,44039.0,0.6,0.0,0.5,-0.3969660997390747,0.5540751218795776,0.28238198161125183,0.03590220957994461,-0.014386218972504139,0.42238378524780273,0.20678266882896423,0.6529124975204468,6.782612323760986,7.195590972900391,-2.0303685665130615,-2.0817270278930664,50476.0,45251.0,53336.0,45334.0,-0.3000025448675481,0.51961377298239,0.5,-0.3349466621875763,-0.5365744829177856,0.23717065155506134,-0.053785450756549835,0.04786884784698486,0.40194618701934814,-1.3961360454559326,0.6050894260406494,2.2803955078125,14.175591468811035,-4.9442973136901855,-2.870931386947632,56900.0,54963.0,52956.0,50948.0,-0.29999491024331576,-0.5196181808098181,0.5
1.63,TAKEOFF,incipient,1.0,0.589920163154602,-0.0019386992789804935,0.2230542004108429,-0.008040184155106544,0.04002736881375313,0.40459737181663513,-1.039842963218689,0.13057182729244232,7.416788578033447,12.604106903076172,8.037753105163574,-3.833136796951294,50753.0,47509.0,51759.0,44331.0,0.6,0.0,0.5,-0.3969660997390747,0.5540751218795776,0.28238198161125183,0.03376144915819168,-0.015414790250360966,0.4159160554409027,0.20678266882896423,0.6529124975204468,6.782612323760986,7.195590972900391,-2.0303685665130615,-2.0817270278930664,52076.0,43344.0,51477.0,46916.0,-0.3000025448675481,0.51961377298239,0.5,-0.3349466621875763,-0.5365744829177856,0.23717065155506134,-0.07630667835474014,0.037579674273729324,0.42369842529296875,-0.9954449534416199,0.8117631077766418,2.1985230445861816,15.628780364990234,8.554137229919434,-3.317272901535034,56464.0,54122.0,52307.0,50844.0,-0.29999491024331576,-0.5196181808098181,0.5
1.648,TAKEOFF,incipient,1.0,0.589920163154602,-0.0019386992789804935,0.2230542004108429,0.005446629598736763,0.03202413395047188,0.3974432647228241,-1.039842963218689,0.13057182729244232,7.416788578033447,12.604106903076172,8.037753105163574,-3.833136796951294,51239.0,47344.0,51794.0,43353.0,0.6,0.0,0.5,-0.3937555253505707,0.5526503324508667,0.32534709572792053,0.03376144915819168,-0.015414790250360966,0.4159160554409027,0.3244817554950714,0.7007692456245422,6.741267204284668,5.733644008636475,5.393312454223633,-2.246227979660034,51271.0,44255.0,52066.0,45918.0,-0.3000025448675481,0.51961377298239,0.5,-0.3349466621875763,-0.5365744829177856,0.23717065155506134,-0.07905350625514984,0.04152090847492218,0.4252408444881439,-0.6870062351226807,0.657437801361084,2.12433123588562,13.571707725524902,10.762222290039062,-2.9553136825561523,56580.0,53479.0,51756.0,51239.0,-0.29999491024331576,-0.5196181808098181,0.5
1.668,TAKEOFF,incipient,1.0,0.5891523361206055,0.002535885199904442,0.2644260823726654,0.0031784726306796074,0.04040135443210602,0.3985176980495453,-0.5368587374687195,-0.12477163225412369,7.337914943695068,12.246564865112305,6.313663005828857,-4.5780253410339355,50671.0,46455.0,51996.0,44085.0,0.6,0.0,0.5,-0.3937555253505707,0.5526503324508667,0.32534709572792053,0.029960809275507927,-0.018515346571803093,0.3996373116970062,0.4369925856590271,0.6048036217689514,6.6972198486328125,3.3545541763305664,5.2799787521362305,-2.308123826980591,51761.0,42754.0,51580.0,46822.0,-0.3000025448675481,0.51961377298239,0.5,-0.3349466621875763,-0.5365744829177856,0.23717065155506134,-0.08175256848335266,0.043279409408569336,0.42535826563835144,-0.4256741404533386,0.4403930902481079,2.0667152404785156,11.201940536499023,10.334368705749512,-2.3379344940185547,56376.0,52572.0,51640.0,51888.0,-0.29999491024331576,-0.5196181808098181,0.5
1.688,TAKEOFF,incipient,1.0,0.5891523361206055,0.002535885199904442,0.2644260823726654,0.0026675015687942505,0.046014875173568726,0.3978610038757324,-0.4214121997356415,-0.19077835977077484,7.291799545288086,11.520499229431152,2.251142978668213,-4.364806652069092,50335.0,47603.0,51495.0,43656.0,0.6,0.0,0.5,-0.3937555253505707,0.5526503324508667,0.32534709572792053,0.028697874397039413,-0.020303351804614067,0.38999083638191223,0.49367186427116394,0.4811849892139435,6.6623759269714355,-0.16073650121688843,4.757562160491943,-2.3085620403289795,51286.0,43309.0,51908.0,46207.0,-0.3000025448675481,0.51961377298239,0.5,-0.3349466621875763,-0.5365744829177856,0.23717065155506134,-0.0825805738568306,0.0440371073782444,0.41763442754745483,-0.25781798362731934,0.1881803274154663,2.0124008655548096,2.8162639141082764,10.487744331359863,-2.6334493160247803,56235.0,52613.0,51534.0,51694.0,-0.29999491024331576,-0.5196181808098181,0.5
1.708,TAKEOFF,incipient,1.0,0.5891523361206055,0.002535885199904442,0.2644260823726654,0.029649972915649414,0.04247283935546875,0.38717353343963623,-0.13402554392814636,-0.4603443145751953,7.160550594329834,10.565781593322754,2.8931164741516113,-2.9813783168792725,50957.0,46250.0,50996.0,45083.0,0.6,0.0,0.5,-0.3937555253505707,0.5526503324508667,0.32534709572792053,0.027851033955812454,-0.02192048355937004,0.37945643067359924,0.3767215609550476,0.2478839010000229,6.593245506286621,-7.20123291015625,2.849294662475586,-1.8237051963806152,50910.0,42644.0,52097.0,46734.0,-0.3000025448675481,0.51961377298239,0.5,-0.34553685784339905,-0.5356932878494263,0.28361648321151733,-0.08159313350915909,0.04437845200300217,0.41223442554473877,-0.21212239563465118,-0.03770590201020241,1.936221957206726,1.6903648376464844,9.882031440734863,-2.6682119369506836,56369.0,52183.0,51150.0,52019.0,-0.29999491024331576,-0.5196181808098181,0.5
1.728,TAKEOFF,incipient,1.0,0.5891523361206055,0.002535885199904442,0.2644260823726654,0.020876308903098106,0.024762924760580063,0.37406355142593384,0.34177759289741516,-0.40045326948165894,7.011002063751221,8.245115280151367,-3.5592453479766846,-2.6613211631774902,49808.0,48046.0,52137.0,43119.0,0.6,0.0,0.5,-0.3937555253505707,0.5526503324508667,0.32534709572792053,0.035025712102651596,-0.023200733587145805,0.3461609184741974,0.3767215609550476,0.2478839010000229,6.593245506286621,-7.20123291015625,2.849294662475586,-1.8237051963806152,51309.0,42443.0,52200.0,47720.0,-0.3000025448675481,0.51961377298239,0.5,-0.34553685784339905,-0.5356932878494263,0.28361648321151733,-0.08123801648616791,0.04521135985851288,0.40611982345581055,-0.18289683759212494,-0.27656853199005127,1.884181022644043,2.5028750896453857,13.677286148071289,-2.3364760875701904,56342.0,53205.0,51148.0,50685.0,-0.29999491024331576,-0.5196181808098181,0.5
1.748,TAKEOFF,incipient,1.0,0.5894598960876465,0.006653994787484407,0.30309802293777466,0.018767818808555603,0.035862576216459274,0.37371814250946045,0.42059266567230225,-0.31556013226509094,7.004800796508789,3.7183499336242676,-4.189213752746582,-1.292110800743103,50012.0,46331.0,52494.0,43744.0,0.6,0.0,0.5,-0.388860285282135,0.5510040521621704,0.3585853576660156,0.0788925513625145,-0.06322938203811646,0.3349733352661133,0.25185200572013855,0.09597879648208618,6.541698455810547,-5.473428249359131,2.5748305320739746,-2.1071743965148926,50990.0,43954.0,52779.0,46615.0,-0.3000025448675481,0.51961377298239,0.5,-0.34553685784339905,-0.5356932878494263,0.28361648321151733,-0.08058695495128632,0.04586012288928032,0.3962579071521759,-0.08719683438539505,-0.5602819323539734,1.8634345531463623,4.78528356552124,12.1599760055542,-1.587745189666748,56678.0,52725.0,50589.0,51026.0,-0.29999491024331576,-0.5196181808098181,0.5
1.768,TAKEOFF,incipient,1.0,0.5894598960876465,0.006653994787484407,0.30309802293777466,0.015520347282290459,0.033736858516931534,0.37156152725219727,0.5208069682121277,-0.2524802088737488,6.895669460296631,0.7875664234161377,-5.485433101654053,-2.9019784927368164,49707.0,47462.0,51835.0,43313.0,0.6,0.0,0.5,-0.388860285282135,0.5510040521621704,0.3585853576660156,0.08206188678741455,-0.06515592336654663,0.3221605122089386,0.45297807455062866,-0.22655357420444489,6.425061225891113,-3.9700381755828857,-1.4444247484207153,-1.780886173248291,52075.0,44493.0,51352.0,45758.0,-0.3000025448675481,0.51961377298239,0.5,-0.34553685784339905,-0.5356932878494263,0.28361648321151733,-0.06514116376638412,0.04246920719742775,0.3771779239177704,0.005016193259507418,-0.9104116559028625,1.8529661893844604,6.977654933929443,12.1334228515625,-0.7017056941986084,56918.0,53201.0,50525.0,50734.0,-0.29999491024331576,-0.5196181808098181,0.5
1.788,TAKEOFF,incipient,1.0,0.5894598960876465,0.006653994787484407,0.30309802293777466,0.01846425049006939,0.038376081734895706,0.3685176968574524,0.4370121955871582,-0.19090305268764496,6.828123092651367,2.023632526397705,-2.2621302604675293,-4.577864170074463,49966.0,47512.0,51286.0,43162.0,0.6,0.0,0.5,-0.388860285282135,0.5510040521621704,0.3585853576660156,0.08269334584474564,-0.06545042246580124,0.3091926872730255,0.386994332075119,-0.20503517985343933,6.3220601081848145,-3.848759174346924,-5.610888481140137,-1.3915090560913086,51318.0,45072.0,52223.0,45206.0,-0.3000025448675481,0.51961377298239,0.5,-0.34553685784339905,-0.5356932878494263,0.28361648321151733,-0.06512908637523651,0.048344388604164124,0.36734727025032043,0.18928773701190948,-1.0974318981170654,1.8321279287338257,10.256072998046875,6.612536907196045,-1.1015326976776123,56158.0,53396.0,51482.0,50486.0,-0.29999491024331576,-0.5196181808098181,0.5
1.808,TAKEOFF,incipient,1.0,0.5894598960876465,0.006653994787484407,0.30309802293777466,0.02478182502090931,0.036205194890499115,0.36001086235046387,0.4223846197128296,-0.15967532992362976,6.748586177825928,-1.613132357597351,-2.2527389526367188,-2.9047257900238037,49525.0,46691.0,51694.0,44000.0,0.6,0.0,0.5,-0.388860285282135,0.5510040521621704,0.3585853576660156,0.07951300591230392,-0.06420734524726868,0.29923415184020996,0.13862605392932892,0.24918831884860992,6.244232654571533,-11.469561576843262,-22.18126106262207,-0.9985798597335815,50613.0,45114.0,52904.0,45343.0,-0.3000025448675481,0.51961377298239,0.5,-0.348241925239563,-0.5308167934417725,0.32159385085105896,-0.06171267107129097,0.04801816865801811,0.3560718297958374,0.3965817987918854,-1.1514514684677124,1.8103609085083008,10.12793254852295,-0.47499993443489075,-0.8289322853088379,56335.0,53180.0,51309.0,50658.0,-0.29999491024331576,-0.5196181808098181,0.5
1.828,TAKEOFF,incipient,1.0,0.5894598960876465,0.006653994787484407,0.30309802293777466,0.012921718880534172,0.0496317557990551,0.35142701864242554,0.28427013754844666,-0.07360059767961502,6.746171474456787,3.598564863204956,1.4556688070297241,-3.215052843093872,50798.0,46587.0,51373.0,42737.0,0.6,0.0,0.5,-0.388860285282135,0.5510040521621704,0.3585853576660156,0.07651541382074356,-0.06168664991855621,0.2909790873527527,-0.12563835084438324,0.6965905427932739,6.310405254364014,-13.5416898727417,-18.25099754333496,-1.8997427225112915,50444.0,44973.0,53127.0,45638.0,-0.3000025448675481,0.51961377298239,0.5,-0.348241925239563,-0.5308167934417725,0.32159385085105896,-0.025872131809592247,0.01749352179467678,0.32663053274154663,0.6764557957649231,-1.1284633874893188,1.7798645496368408,10.602293014526367,-3.1864194869995117,-0.2820286750793457,57041.0,53891.0,50850.0,50028.0,-0.29999491024331576,-0.5196181808098181,0.5
1.848,TAKEOFF,incipient,1.0,0.5877777934074402,0.010791942477226257,0.3418843746185303,-0.013257300481200218,0.038382600992918015,0.3492202162742615,0.3571627140045166,0.10090222954750061,6.6927809715271,-0.19041579961776733,1.2302714586257935,-3.3277599811553955,49649.0,47034.0,51709.0,42763.0,0.6,0.0,0.5,-0.37474524974823,0.5398475527763367,0.3917999863624573,0.07946926355361938,-0.06479214876890182,0.2745646834373474,-0.3533298671245575,1.038595199584961,6.201781749725342,-14.597439765930176,-13.085230827331543,-2.2828264236450195,49233.0,46064.0,52954.0,46309.0,-0.3000025448675481,0.51961377298239,0.5,-0.348241925239563,-0.5308167934417725,0.32159385085105896,-0.03443362936377525,0.024157868698239326,0.30910006165504456,0.9276642799377441,-1.2109841108322144,1.8142420053482056,7.356001853942871,-0.14127036929130554,1.0273014307022095,57366.0,52954.0,50600.0,50894.0,-0.29999491024331576,-0.5196181808098181,0.5
1.868,TAKEOFF,incipient,1.0,0.5877777934074402,0.010791942477226257,0.3418843746185303,-0.013483923859894276,0.037181757390499115,0.3400365114212036,0.42087090015411377,0.026814451441168785,6.618224620819092,6.491744518280029,5.24717903137207,-4.081237316131592,49846.0,47207.0,51056.0,43195.0,0.6,0.0,0.5,-0.37474524974823,0.5398475527763367,0.3917999863624573,0.0666588693857193,-0.05765523016452789,0.2698536515235901,-0.6859708428382874,1.390631079673767,6.234268665313721,-10.890414237976074,-8.971404075622559,-2.353034019470215,50995.0,44256.0,52812.0,46587.0,-0.3000025448675481,0.51961377298239,0.5,-0.348241925239563,-0.5308167934417725,0.32159385085105896,-0.03443362936377525,0.024157868698239326,0.30910006165504456,1.0718958377838135,-1.197195291519165,1.8603718280792236,6.713972091674805,0.07684112340211868,1.4407548904418945,56431.0,53628.0,51831.0,50463.0,-0.29999491024331576,-0.5196181808098181,0.5
1.888,TAKEOFF,incipient,1.0,0.5877777934074402,0.010791942477226257,0.3418843746185303,-0.012347274459898472,0.037157319486141205,0.33528995513916016,0.5721164345741272,-0.1300368458032608,6.561534404754639,10.748366355895996,8.882165908813477,-4.765919208526611,50410.0,46927.0,50822.0,42740.0,0.6,0.0,0.5,-0.37474524974823,0.5398475527763367,0.3917999863624573,0.06496984511613846,-0.05686045065522194,0.25594717264175415,-0.8734143972396851,1.5477834939956665,6.174581527709961,-6.776362895965576,-3.3374321460723877,-2.847228527069092,51463.0,43235.0,53551.0,45667.0,-0.3000025448675481,0.51961377298239,0.5,-0.35103631019592285,-0.5304379463195801,0.3512694239616394,-0.031995538622140884,0.020285194739699364,0.2924259901046753,1.1324048042297363,-1.1810282468795776,1.8525376319885254,-2.1965279579162598,-4.756119728088379,-0.2923809885978699,56533.0,52886.0,51946.0,51630.0,-0.29999491024331576,-0.5196181808098181,0.5
1.908,TAKEOFF,incipient,1.0,0.5877777934074402,0.010791942477226257,0.3418843746185303,-0.009945959784090519,0.035272520035505295,0.32788217067718506,0.7620140910148621,-0.3528715968132019,6.518722057342529,8.186110496520996,11.077319145202637,-3.7690296173095703,50881.0,46328.0,50611.0,42908.0,0.6,0.0,0.5,-0.37474524974823,0.5398475527763367,0.3917999863624573,0.06718633323907852,-0.05852128565311432,0.23846164345741272,-0.9654204845428467,1.5807095766067505,6.052821636199951,-3.3366425037384033,-1.0414314270019531,-2.9616668224334717,50576.0,45229.0,51980.0,47423.0,-0.3000025448675481,0.51961377298239,0.5,-0.35103631019592285,-0.5304379463195801,0.3512694239616394,-0.021986741572618484,0.011134590953588486,0.2624363899230957,1.1084131002426147,-1.1017389297485352,1.8384125232696533,-7.928662300109863,-8.330674171447754,-0.6648266315460205,55419.0,53959.0,53421.0,50812.0,-0.29999491024331576,-0.5196181808098181,0.5
1.928,TAKEOFF,incipient,1.0,0.5877777934074402,0.010791942477226257,0.3418843746185303,-0.006390444468706846,0.03176644444465637,0.31967392563819885,0.9266778826713562,-0.5740208029747009,6.479341506958008,8.465895652770996,7.7489800453186035,-3.3424909114837646,50134.0,46865.0,50693.0,43111.0,0.6,0.0,0.5,-0.37474524974823,0.5398475527763367,0.3917999863624573,0.06172266602516174,-0.055878784507513046,0.2282998114824295,-1.0390877723693848,1.6076977252960205,5.995668888092041,-1.9625000953674316,0.12400206923484802,-2.723280191421509,51564.0,44892.0,52550.0,46539.0,-0.3000025448675481,0.51961377298239,0.5,-0.35103631019592285,-0.5304379463195801,0.3512694239616394,-0.021986741572618484,0.011134590953588486,0.2624363899230957,0.9415252208709717,-0.9132940173149109,1.8045191764831543,-12.419564247131348,-12.710480690002441,-1.2961593866348267,55861.0,53800.0,53255.0,51351.0,-0.29999491024331576,-0.5196181808098181,0.5
1.948,TAKEOFF,incipient,1.0,0.5870431661605835,0.012895039282739162,0.3752886652946472,-0.007003595121204853,0.021840354427695274,0.30524471402168274,1.08384108543396,-0.7223721146583557,6.408900737762451,2.190840244293213,6.962491035461426,-3.514683961868286,49568.0,46986.0,51207.0,43318.0,0.6,0.0,0.5,-0.36907145380973816,0.5361001491546631,0.4155462384223938,0.05933272838592529,-0.05131670460104942,0.211758553981781,-1.0991240739822388,1.590811848640442,5.882566928863525,0.2620711326599121,-3.5504162311553955,-3.2888660430908203,50879.0,45925.0,51669.0,47713.0,-0.3000025448675481,0.51961377298239,0.5,-0.35103631019592285,-0.5304379463195801,0.3512694239616394,0.003191903466358781,-0.0003423623857088387,0.26376739144325256,0.731825590133667,-0.7745879888534546,1.7622730731964111,-9.692259788513184,-15.119958877563477,-1.804725170135498,55943.0,53930.0,51913.0,51863.0,-0.29999491024331576,-0.5196181808098181,0.5
1.968,TAKEOFF,incipient,1.0,0.5870431661605835,0.012895039282739162,0.3752886652946472,-0.0036633838899433613,0.01760711334645748,0.29211342334747314,1.132398247718811,-0.8705920577049255,6.327740669250488,-1.2498983144760132,4.1159796714782715,-5.8559346199035645,50563.0,46814.0,50794.0,43112.0,0.6,0.0,0.5,-0.36907145380973816,0.5361001491546631,0.4155462384223938,0.03790426254272461,-0.03481731191277504,0.21966494619846344,-1.228725790977478,1.7495677471160889,5.921205043792725,-1.6598986387252808,-3.2919535636901855,-2.3971328735351562,51597.0,44929.0,52562.0,46701.0,-0.3000025448675481,0.51961377298239,0.5,-0.35103631019592285,-0.5304379463195801,0.3512694239616394,0.010455435141921043,-0.003073162864893675,0.26022693514823914,0.5102828741073608,-0.49256956577301025,1.6934722661972046,-10.024358749389648,-13.945426940917969,-2.4506635665893555,55980.0,54343.0,51610.0,51494.0,-0.29999491024331576,-0.5196181808098181,0.5
1.988,TAKEOFF,incipient,1.0,0.5870431661605835,0.012895039282739162,0.3752886652946472,-0.0006145089282654226,0.014294583350419998,0.27964144945144653,1.0803097486495972,-0.9595416188240051,6.2088847160339355,-6.686695098876953,2.9270811080932617,-4.78394889831543,49785.0,46780.0,50856.0,44069.0,0.6,0.0,0.5,-0.36907145380973816,0.5361001491546631,0.4155462384223938,0.03292059525847435,-0.029706265777349472,0.2116624265909195,-1.2476146221160889,1.825627326965332,5.8722147941589355,1.985741376876831,-5.509035587310791,-2.9142556190490723,50275.0,45701.0,53640.0,45801.0,-0.3000025448675481,0.51961377298239,0.5,-0.34538009762763977,-0.5336126685142517,0.3790907561779022,0.013931390829384327,-0.0050360653549432755,0.2434937208890915,0.314222127199173,-0.22660623490810394,1.6157116889953613,-10.383010864257812,-15.591344833374023,-2.0848021507263184,56064.0,54534.0,51960.0,50925.0,-0.29999491024331576,-0.5196181808098181,0.5
2.008,TAKEOFF,incipient,1.0,0.5870431661605835,0.012895039282739162,0.3752886652946472,0.00275898608379066,0.01110160257667303,0.26743555068969727,0.9737853407859802,-1.0043498277664185,6.111342906951904,-3.2712278366088867,-1.0686891078948975,-5.116944789886475,49875.0,47136.0,50954.0,43729.0,0.6,0.0,0.5,-0.36907145380973816,0.5361001491546631,0.4155462384223938,0.026101315394043922,-0.02606603130698204,0.2041483372449875,-1.2226266860961914,1.935544490814209,5.814210414886475,1.9775123596191406,-0.8766064047813416,-1.4376875162124634,51302.0,44411.0,52794.0,47027.0,-0.3000025448675481,0.51961377298239,0.5,-0.34538009762763977,-0.5336126685142517,0.3790907561779022,-0.004410437773913145,0.014907958917319775,0.21745683252811432,-0.03088749758899212,0.23293660581111908,1.6093268394470215,-8.924720764160156,-16.804214477539062,-1.1148239374160767,55361.0,54367.0,53632.0,51435.0,-0.29999491024331576,-0.5196181808098181,0.5
2.028,TAKEOFF,incipient,1.0,0.5870431661605835,0.012895039282739162,0.3752886652946472,0.03696752339601517,0.008501228876411915,0.257644385099411,0.9160438179969788,-1.1983920335769653,6.003211498260498,-4.740532875061035,-2.4264984130859375,-4.893378257751465,49960.0,46902.0,50895.0,44224.0,0.6,0.0,0.5,-0.36907145380973816,0.5361001491546631,0.4155462384223938,0.019298989325761795,-0.022746151313185692,0.19670318067073822,-1.1560642719268799,1.9934719800949097,5.763208866119385,2.9694368839263916,2.240696668624878,-2.8512301445007324,51609.0,45991.0,52482.0,45612.0,-0.3000025448675481,0.51961377298239,0.5,-0.34538009762763977,-0.5336126685142517,0.3790907561779022,-0.004410437773913145,0.014907958917319775,0.21745683252811432,-0.2208596169948578,0.47465991973876953,1.5835809707641602,-9.569058418273926,-12.761052131652832,-0.7367768287658691,55690.0,54049.0,53201.0,52251.0,-0.29999491024331576,-0.5196181808098181,0.5
2.048,TAKEOFF,incipient,1.0,0.5945930480957031,0.013804679736495018,0.40174537897109985,0.041215915232896805,0.005845429375767708,0.24899184703826904,0.8152700662612915,-1.1301140785217285,5.907582759857178,-2.4333479404449463,-2.6956210136413574,-5.054877281188965,50375.0,47229.0,50520.0,43836.0,0.6,0.0,0.5,-0.3688594400882721,0.5363666415214539,0.4386599063873291,0.012388776987791061,-0.019650774076581,0.18975216150283813,-1.0931925773620605,1.9491544961929321,5.707142353057861,3.520080804824829,5.086837291717529,-1.8492488861083984,51325.0,45332.0,52823.0,46267.0,-0.3000025448675481,0.51961377298239,0.5,-0.34538009762763977,-0.5336126685142517,0.3790907561779022,0.0013277716934680939,0.011166074313223362,0.20901525020599365,-0.3632236421108246,0.6611250042915344,1.547175407409668,-6.143355369567871,-7.01899528503418,0.886336088180542,55980.0,54169.0,54001.0,51660.0,-0.29999491024331576,-0.5196181808098181,0.5
2.068,TAKEOFF,incipient,1.0,0.5945930480957031,0.013804679736495018,0.40174537897109985,0.04521545022726059,0.0035016266629099846,0.23961403965950012,0.7049244046211243,-1.0358340740203857,5.836195468902588,-2.3759186267852783,-2.301478147506714,-4.563077449798584,50304.0,46789.0,50647.0,44407.0,0.6,0.0,0.5,-0.3688594400882721,0.5363666415214539,0.4386599063873291,-0.00829665269702673,-0.0012247482081875205,0.19617483019828796,-1.1892417669296265,1.904596209526062,5.750148296356201,2.947136402130127,3.4433846473693848,-1.821799397468567,51678.0,45206.0,52625.0,46286.0,-0.3000025448675481,0.51961377298239,0.5,-0.34538009762763977,-0.5336126685142517,0.3790907561779022,-0.03104327991604805,0.025831246748566628,0.19312246143817902,-0.5731531381607056,0.9935787916183472,1.5769935846328735,-2.5327792167663574,-1.6992372274398804,1.4161179065704346,56662.0,53613.0,53577.0,51878.0,-0.29999491024331576,-0.5196181808098181,0.5
2.088,TAKEOFF,incipient,1.0,0.5945930480957031,0.013804679736495018,0.40174537897109985,0.026814593002200127,-0.004147620871663094,0.23142710328102112,0.76930832862854,-0.7957535982131958,5.73042106628418,-3.300924301147461,-9.219386100769043,-4.98317289352417,49348.0,48063.0,51540.0,42952.0,0.6,0.0,0.5,-0.3688594400882721,0.5363666415214539,0.4386599063873291,-0.010537971742451191,0.011377093382179737,0.18517784774303436,-1.156375527381897,1.8095424175262451,5.755387783050537,3.030569314956665,7.916070938110352,-1.281611680984497,51120.0,44819.0,53023.0,46501.0,-0.3000025448675481,0.51961377298239,0.5,-0.35317090153694153,-0.5275066494941711,0.39686140418052673,-0.03795752301812172,0.03158990666270256,0.18714787065982819,-0.6055805087089539,1.0170650482177734,1.6017597913742065,-1.099081039428711,3.2668323516845703,2.253059148788452,57418.0,53075.0,53134.0,52284.0,-0.29999491024331576,-0.5196181808098181,0.5
2.108,TAKEOFF,incipient,1.0,0.5945930480957031,0.013804679736495018,0.40174537897109985,0.02977115288376808,-0.006403855048120022,0.22145232558250427,0.6876375675201416,-0.6045289039611816,5.626876354217529,-3.3799097537994385,-9.412674903869629,-4.8544206619262695,49485.0,47836.0,51417.0,43461.0,0.6,0.0,0.5,-0.3688594400882721,0.5363666415214539,0.4386599063873291,-0.01676143705844879,0.014553488232195377,0.17848238348960876,-1.0962694883346558,1.6388353109359741,5.720283508300781,5.817516326904297,13.625572204589844,-1.2056574821472168,51028.0,44364.0,53112.0,46736.0,-0.3000025448675481,0.51961377298239,0.5,-0.35317090153694153,-0.5275066494941711,0.39686140418052673,-0.04128187149763107,0.02907869964838028,0.17948347330093384,-0.6597046256065369,0.9368545413017273,1.6754555702209473,-1.6958221197128296,11.268987655639648,2.1916260719299316,56932.0,52341.0,53792.0,53150.0,-0.29999491024331576,-0.5196181808098181,0.5
2.128,TAKEOFF,incipient,1.0,0.5945930480957031,0.013804679736495018,0.40174537897109985,0.03214265778660774,-0.008497083559632301,0.21243244409561157,0.6229885220527649,-0.4236659109592438,5.536406517028809,-5.264819145202637,-10.566461563110352,-3.8096554279327393,49211.0,47457.0,51817.0,43923.0,0.6,0.0,0.5,-0.3688594400882721,0.5363666415214539,0.4386599063873291,-0.012208560481667519,0.0073243300430476665,0.16118107736110687,-0.8733879923820496,1.3442150354385376,5.703274250030518,8.9738130569458,9.734152793884277,-0.9043389558792114,52176.0,44728.0,52249.0,46620.0,-0.3000025448675481,0.51961377298239,0.5,-0.35317090153694153,-0.5275066494941711,0.39686140418052673,-0.04128187149763107,0.02907869964838028,0.17948347330093384,-0.6836249232292175,0.6917858123779297,1.7003849744796753,-4.404721260070801,16.858606338500977,1.6221097707748413,57877.0,52497.0,52590.0,53121.0,-0.29999491024331576,-0.5196181808098181,0.5
2.148,TAKEOFF,incipient,1.0,0.5936375856399536,0.011879539117217064,0.4242437481880188,0.03389311581850052,-0.010427809320390224,0.2028292566537857,0.5447626113891602,-0.25373485684394836,5.462301254272461,-2.2302989959716797,-8.137654304504395,-2.8815085887908936,50356.0,48735.0,50809.0,42485.0,0.6,0.0,0.5,-0.36745476722717285,0.5385424494743347,0.4555633068084717,-0.012847119010984898,0.00707263546064496,0.14984267950057983,-0.6715198755264282,1.140221118927002,5.67979097366333,9.469061851501465,4.678853511810303,-0.10632701963186264,52326.0,46027.0,52305.0,45521.0,-0.3000025448675481,0.51961377298239,0.5,-0.35317090153694153,-0.5275066494941711,0.39686140418052673,-0.025845946744084358,0.022097742184996605,0.18526072800159454,-0.6850214600563049,0.21636933088302612,1.7162423133850098,-7.290062427520752,20.300369262695312,2.441385507583618,57736.0,52830.0,52917.0,52468.0,-0.29999491024331576,-0.5196181808098181,0.5
2.168,TAKEOFF,incipient,1.0,0.5936375856399536,0.011879539117217064,0.4242437481880188,0.03437323868274689,-0.011483388021588326,0.19653964042663574,0.5058155059814453,-0.15278513729572296,5.369758605957031,-3.818380355834961,-2.9894614219665527,-2.9810187816619873,50201.0,47496.0,51028.0,44053.0,0.6,0.0,0.5,-0.36745476722717285,0.5385424494743347,0.4555633068084717,-0.020158031955361366,0.011900580488145351,0.1477658450603485,-0.47967973351478577,1.0431443452835083,5.724249362945557,11.604228019714355,1.6375517845153809,-0.7520170211791992,51664.0,45716.0,53133.0,46100.0,-0.3000025448675481,0.51961377298239,0.5,-0.35317090153694153,-0.5275066494941711,0.39686140418052673,-0.025231046602129936,0.024913685396313667,0.18265408277511597,-0.8096215128898621,-0.14412470161914825,1.7533562183380127,-3.511021852493286,13.059260368347168,3.5257153511047363,57605.0,52669.0,53415.0,52065.0,-0.29999491024331576,-0.5196181808098181,0.5
2.188,TAKEOFF,incipient,1.0,0.5936375856399536,0.011879539117217064,0.4242437481880188,0.035077400505542755,-0.013091790489852428,0.1879960298538208,0.4422569274902344,-0.1228521540760994,5.2952494621276855,-3.4691710472106934,-0.4548243582248688,-3.533773899078369,49896.0,47134.0,51313.0,44675.0,0.6,0.0,0.5,-0.36745476722717285,0.5385424494743347,0.4555633068084717,-0.023711662739515305,0.012964005582034588,0.14160248637199402,-0.2400900274515152,1.030846357345581,5.711308479309082,10.88417911529541,-1.7175041437149048,-0.582597553730011,51782.0,45040.0,53096.0,46463.0,-0.3000025448675481,0.51961377298239,0.5,-0.3494020402431488,-0.5311242341995239,0.4166831374168396,-0.025231046602129936,0.024913685396313667,0.18265408277511597,-0.8736139535903931,-0.3815159201622009,1.8239902257919312,0.17694246768951416,5.94639778137207,3.957366704940796,58218.0,52326.0,52758.0,52170.0,-0.29999491024331576,-0.5196181808098181,0.5
2.208,TAKEOFF,incipient,1.0,0.5936375856399536,0.011879539117217064,0.4242437481880188,0.03715519607067108,-0.012460029684007168,0.18154741823673248,0.34602975845336914,-0.13769397139549255,5.179047584533691,-3.4212021827697754,0.6672123074531555,-3.857126235961914,50298.0,47232.0,50938.0,44625.0,0.6,0.0,0.5,-0.36745476722717285,0.5385424494743347,0.4555633068084717,-0.030932078137993813,0.01726638153195381,0.1405428797006607,-0.06464027613401413,1.0689946413040161,5.759759902954102,7.080472946166992,0.5267798900604248,-0.38254567980766296,51720.0,44981.0,53265.0,46541.0,-0.3000025448675481,0.51961377298239,0.5,-0.3494020402431488,-0.5311242341995239,0.4166831374168396,-0.006635085679590702,0.019208861514925957,0.18158423900604248,-0.7909635305404663,-0.6694347262382507,1.8872063159942627,3.9100987911224365,3.375136137008667,3.4012022018432617,58345.0,52876.0,52550.0,51793.0,-0.29999491024331576,-0.5196181808098181,0.5
2.228,TAKEOFF,incipient,1.0,0.5936375856399536,0.011879539117217064,0.4242437481880188,0.037701722234487534,-0.013642835430800915,0.17404796183109283,0.2839313745498657,-0.12487195432186127,5.103628158569336,-1.6874445676803589,0.3274540305137634,-4.342677593231201,50906.0,46993.0,50352.0,45076.0,0.6,0.0,0.5,-0.36745476722717285,0.5385424494743347,0.4555633068084717,-0.034475911408662796,0.01700686663389206,0.13482613861560822,0.06039123609662056,1.0620715618133545,5.751693248748779,1.8229374885559082,2.3302242755889893,-1.078763723373413,51210.0,45059.0,53671.0,46348.0,-0.3000025448675481,0.51961377298239,0.5,-0.3494020402431488,-0.5311242341995239,0.4166831374168396,-0.0019068596884608269,0.021447645500302315,0.18329592049121857,-0.7216134667396545,-0.7175858020782471,1.9333922863006592,3.2692315578460693,-6.122371196746826,2.3585121631622314,57813.0,53061.0,52803.0,51680.0,-0.29999491024331576,-0.5196181808098181,0.5
2.248,TAKEOFF,incipient,1.0,0.6024541854858398,0.006951587740331888,0.44648033380508423,0.040354132652282715,-0.011917517520487309,0.16930317878723145,0.36277174949645996,-0.2162073701620102,4.939327239990234,-1.488102674484253,0.37176036834716797,-3.6509768962860107,50071.0,48240.0,50073.0,45147.0,0.6,0.0,0.5,-0.37006625533103943,0.5408457517623901,0.4696151912212372,-0.010870473459362984,0.0009266879642382264,0.10908143222332001,0.2361518293619156,0.8066895604133606,5.636579513549805,-1.2790799140930176,7.309154510498047,0.25668901205062866,50721.0,45443.0,52211.0,48574.0,-0.3000025448675481,0.51961377298239,0.5,-0.3494020402431488,-0.5311242341995239,0.4166831374168396,-0.007697485387325287,0.04351441562175751,0.16851748526096344,-0.7886534333229065,-0.5109103322029114,2.006673574447632,1.3298064470291138,-13.243290901184082,2.6818020343780518,56805.0,52435.0,54226.0,52477.0,-0.29999491024331576,-0.5196181808098181,0.5
2.268,TAKEOFF,incipient,1.0,0.6024541854858398,0.006951587740331888,0.44648033380508423,0.05488518998026848,-0.03440549224615097,0.1785597950220108,0.3042237162590027,-0.15318381786346436,4.863740921020508,-4.300418853759766,-3.988481044769287,-3.7893502712249756,50114.0,47321.0,50662.0,44295.0,0.6,0.0,0.5,-0.37006625533103943,0.5408457517623901,0.4696151912212372,-0.01217356976121664,0.000401627883547917,0.10655422508716583,0.2100915014743805,0.6879605054855347,5.661754131317139,-3.2235097885131836,7.372800350189209,0.7771896719932556,52670.0,44629.0,53059.0,47461.0,-0.3000025448675481,0.51961377298239,0.5,-0.3494020402431488,-0.5311242341995239,0.4166831374168396,-0.007697485387325287,0.04351441562175751,0.16851748526096344,-0.794279932975769,-0.3016943037509918,2.0588107109069824,-3.8371005058288574,-10.59210205078125,2.1518726348876953,56412.0,53611.0,54164.0,51710.0,-0.29999491024331576,-0.5196181808098181,0.5
2.288,TAKEOFF,incipient,1.0,0.6024541854858398,0.006951587740331888,0.44648033380508423,0.05553136393427849,-0.035430658608675,0.17026863992214203,0.089239202439785,-0.0024858859833329916,4.8553690910339355,-6.788405418395996,-5.810781002044678,-4.832549571990967,50427.0,47059.0,50783.0,44310.0,0.6,0.0,0.5,-0.37006625533103943,0.5408457517623901,0.4696151912212372,-0.03004085086286068,0.010120796039700508,0.11020532250404358,0.04849134758114815,0.6432477235794067,5.739485263824463,-5.050334930419922,2.022501230239868,0.3794279396533966,51847.0,44524.0,53767.0,47568.0,-0.3000025448675481,0.51961377298239,0.5,-0.35245370864868164,-0.5273372530937195,0.4332716763019562,0.004054746124893427,0.02766498550772667,0.16759373247623444,-0.7582838535308838,-0.21163150668144226,2.109116554260254,-2.596632480621338,-11.61377239227295,1.6218734979629517,56609.0,54135.0,53954.0,51139.0,-0.29999491024331576,-0.5196181808098181,0.5
2.308,TAKEOFF,incipient,1.0,0.6024541854858398,0.006951587740331888,0.44648033380508423,0.06441681832075119,-0.02586064487695694,0.16012245416641235,0.015158995054662228,0.03220324590802193,4.67915678024292,-3.843997001647949,-8.918854713439941,-4.1224589347839355,50311.0,47577.0,50450.0,44423.0,0.6,0.0,0.5,-0.37006625533103943,0.5408457517623901,0.4696151912212372,-0.03490866720676422,0.013535585254430771,0.11231499910354614,-0.05801183357834816,0.5749229192733765,5.803470134735107,-4.709537506103516,0.6731588840484619,0.06527258455753326,52485.0,44470.0,53165.0,47376.0,-0.3000025448675481,0.51961377298239,0.5,-0.35245370864868164,-0.5273372530937195,0.4332716763019562,0.003628568025305867,0.030158357694745064,0.1661117821931839,-0.7324830889701843,0.06286166608333588,2.132579803466797,0.0449313223361969,-7.310479640960693,0.9251967668533325,57115.0,52920.0,53083.0,52471.0,-0.29999491024331576,-0.5196181808098181,0.5
2.328,TAKEOFF,incipient,1.0,0.6024541854858398,0.006951587740331888,0.44648033380508423,0.06445827335119247,-0.025979822501540184,0.15189099311828613,-0.052237387746572495,0.12585902214050293,4.638835430145264,-6.705673694610596,-14.02851676940918,-4.166713714599609,49668.0,48135.0,51288.0,43858.0,0.6,0.0,0.5,-0.37006625533103943,0.5408457517623901,0.4696151912212372,-0.03263606131076813,0.011298734694719315,0.10591616481542587,-0.1153237521648407,0.5228235721588135,5.7999444007873535,1.519963264465332,0.24535849690437317,0.23894207179546356,50423.0,45902.0,53362.0,47992.0,-0.3000025448675481,0.51961377298239,0.5,-0.35245370864868164,-0.5273372530937195,0.4332716763019562,0.003628568025305867,0.030158357694745064,0.1661117821931839,-0.7401312589645386,0.18479770421981812,2.1464366912841797,-0.5013366341590881,0.23826511204242706,-0.620080828666687,56789.0,53723.0,53274.0,51737.0,-0.29999491024331576,-0.5196181808098181,0.5
2.348,TAKEOFF,incipient,1.0,0.6086611151695251,0.0065155355259776115,0.46137452125549316,0.0671670138835907,-0.026438865810632706,0.14538034796714783,-0.21311946213245392,0.3456585705280304,4.5111494064331055,-6.120914459228516,-11.625377655029297,-4.2340989112854,50022.0,48108.0,50961.0,44065.0,0.6,0.0,0.5,-0.3749045133590698,0.5439581274986267,0.4820701479911804,-0.03596021980047226,0.014757830649614334,0.10477808862924576,-0.08060039579868317,0.5175114274024963,5.874462604522705,3.514660358428955,-0.7137991189956665,0.7768656015396118,52348.0,45248.0,53385.0,46584.0,-0.3000025448675481,0.51961377298239,0.5,-0.35245370864868164,-0.5273372530937195,0.4332716763019562,0.012631876394152641,0.026720447465777397,0.16176123917102814,-0.7007538080215454,0.12461267411708832,2.1275932788848877,-0.2347395420074463,0.8438513278961182,-1.4037107229232788,56928.0,54275.0,53114.0,51164.0,-0.29999491024331576,-0.5196181808098181,0.5
2.368,TAKEOFF,incipient,1.0,0.6086611151695251,0.0065155355259776115,0.46137452125549316,0.05735485628247261,-0.029562434181571007,0.14487740397453308,-0.32941630482673645,0.6416491270065308,4.4196858406066895,-3.622953414916992,-6.483168125152588,-2.591359853744507,50413.0,47705.0,50506.0,44377.0,0.6,0.0,0.5,-0.3749045133590698,0.5439581274986267,0.4820701479911804,-0.033640943467617035,0.0107760950922966,0.09771794080734253,0.08958114683628082,0.5062390565872192,5.808530807495117,8.77598762512207,1.0188486576080322,0.043140534311532974,52992.0,45891.0,52929.0,45655.0,-0.3000025448675481,0.51961377298239,0.5,-0.35245370864868164,-0.5273372530937195,0.4332716763019562,0.012141485698521137,0.029085403308272362,0.15972356498241425,-0.6771478652954102,0.14913050830364227,2.0992326736450195,1.0023479461669922,-2.3186898231506348,-2.1465003490448,57033.0,54014.0,52833.0,51537.0,-0.29999491024331576,-0.5196181808098181,0.5
2.388,TAKEOFF,incipient,1.0,0.6086611151695251,0.0065155355259776115,0.46137452125549316,0.05275682732462883,-0.026232369244098663,0.14302191138267517,-0.4733668267726898,0.8353701233863831,4.368391513824463,-4.394623756408691,-6.188552379608154,-3.377917528152466,49665.0,47466.0,51116.0,44650.0,0.6,0.0,0.5,-0.3749045133590698,0.5439581274986267,0.4820701479911804,-0.0430774949491024,0.015264219604432583,0.10070858150720596,0.23480108380317688,0.5431555509567261,5.863922595977783,7.509890079498291,4.4603753089904785,-0.2714668810367584,52443.0,45986.0,53446.0,45836.0,-0.3000025448675481,0.51961377298239,0.5,-0.35552316904067993,-0.5194374918937683,0.4492698907852173,0.011470943689346313,0.03132157772779465,0.15811724960803986,-0.9190177917480469,0.46173912286758423,2.1075451374053955,0.1835489124059677,-2.244666337966919,-1.7796106338500977,55624.0,53378.0,54678.0,52474.0,-0.29999491024331576,-0.5196181808098181,0.5
2.408,TAKEOFF,incipient,1.0,0.6086611151695251,0.0065155355259776115,0.46137452125549316,0.05901455506682396,-0.02089918963611126,0.1363993138074875,-0.5018983483314514,0.884152352809906,4.255080699920654,-1.2859553098678589,-4.230878829956055,-3.1918718814849854,50111.0,47781.0,50711.0,44382.0,0.6,0.0,0.5,-0.3749045133590698,0.5439581274986267,0.4820701479911804,-0.04484971985220909,0.014459083788096905,0.09725455194711685,0.3665611147880554,0.4357280433177948,5.86478328704834,4.312233924865723,5.778869152069092,-0.8381811380386353,52383.0,45164.0,53461.0,46484.0,-0.3000025448675481,0.51961377298239,0.5,-0.35552316904067993,-0.5194374918937683,0.4492698907852173,-0.03168651461601257,0.07837075740098953,0.14425800740718842,-0.956588625907898,0.5638237595558167,2.106722116470337,0.14192962646484375,-3.9782001972198486,-2.224397659301758,55890.0,53238.0,54010.0,53119.0,-0.29999491024331576,-0.5196181808098181,0.5
2.428,TAKEOFF,incipient,1.0,0.6086611151695251,0.0065155355259776115,0.46137452125549316,0.0590832494199276,-0.020276959985494614,0.12826675176620483,-0.5455502867698669,0.9613003134727478,4.1455397605896,1.9567697048187256,-3.276961326599121,-2.1514463424682617,50173.0,48193.0,50819.0,44027.0,0.6,0.0,0.5,-0.3749045133590698,0.5439581274986267,0.4820701479911804,-0.04630734398961067,0.013165023177862167,0.09413618594408035,0.4368133842945099,0.28141969442367554,5.853702068328857,0.6757093071937561,7.499033451080322,-0.032664477825164795,52549.0,44376.0,53181.0,47429.0,-0.3000025448675481,0.51961377298239,0.5,-0.35552316904067993,-0.5194374918937683,0.4492698907852173,-0.03396410867571831,0.08150490373373032,0.14344224333763123,-0.9517198801040649,0.6331544518470764,2.0622146129608154,2.2800025939941406,0.3248906433582306,-2.5979881286621094,56372.0,53230.0,53815.0,52723.0,-0.29999491024331576,-0.5196181808098181,0.5
2.447,TAKEOFF,incipient,1.0,0.6097729802131653,0.00413319980725646,0.4772268533706665,0.048626650124788284,-0.022810442373156548,0.12500029802322388,-0.4996042549610138,1.074030876159668,4.10835075378418,1.2291717529296875,-2.7758450508117676,-1.974596619606018,49896.0,47585.0,51203.0,44553.0,0.6,0.0,0.5,-0.37958186864852905,0.5458764433860779,0.49195149540901184,-0.047258149832487106,0.011633827351033688,0.09063892811536789,0.43725284934043884,0.11594267934560776,5.8420538902282715,-2.0278546810150146,9.194010734558105,0.35185253620147705,52305.0,44169.0,53418.0,47631.0,-0.3000025448675481,0.51961377298239,0.5,-0.35552316904067993,-0.5194374918937683,0.4492698907852173,-0.036046240478754044,0.0843832939863205,0.14320921897888184,-0.8940334320068359,0.6083371043205261,2.0092079639434814,7.588807106018066,5.652432441711426,-3.4822165966033936,56510.0,53014.0,53632.0,52908.0,-0.29999491024331576,-0.5196181808098181,0.5
2.468,TAKEOFF,incipient,1.0,0.6097729802131653,0.00413319980725646,0.4772268533706665,0.047505829483270645,-0.022909382358193398,0.12111058086156845,-0.504278838634491,1.1130741834640503,4.0648369789123535,0.17092567682266235,-2.455519199371338,-1.7908424139022827,50018.0,48265.0,50962.0,43820.0,0.6,0.0,0.5,-0.37958186864852905,0.5458764433860779,0.49195149540901184,-0.02495856024324894,-0.0013341668527573347,0.06830038875341415,0.4957435727119446,-0.20685338973999023,5.758288860321045,-2.1771514415740967,9.721673011779785,0.4003050625324249,52142.0,45160.0,54263.0,47224.0,-0.3000025448675481,0.51961377298239,0.5,-0.35552316904067993,-0.5194374918937683,0.4492698907852173,-0.0376051664352417,0.08667740970849991,0.14304746687412262,-0.7466788291931152,0.47288912534713745,1.9467257261276245,12.283309936523438,7.996594429016113,-2.7956268787384033,57337.0,52514.0,52470.0,53425.0,-0.29999491024331576,-0.5196181808098181,0.5
2.488,TAKEOFF,incipient,1.0,0.6097729802131653,0.00413319980725646,0.4772268533706665,0.049194589257240295,-0.016461530700325966,0.11505065113306046,-0.4876120388507843,1.1098432540893555,3.962141752243042,-1.9522292613983154,-1.0656949281692505,-2.1601498126983643,49336.0,47938.0,50739.0,45527.0,0.6,0.0,0.5,-0.37958186864852905,0.5458764433860779,0.49195149540901184,-0.03644043579697609,0.005455092526972294,0.07112707197666168,0.395412415266037,-0.2709842324256897,5.767816066741943,0.15477028489112854,-2.5305566787719727,0.3907265067100525,52464.0,46024.0,54196.0,46639.0,-0.3000025448675481,0.51961377298239,0.5,-0.359755277633667,-0.5105427503585815,0.4633483290672302,-0.03844664618372917,0.08806372433900833,0.14188367128372192,-0.49745285511016846,0.2822989225387573,1.885567307472229,17.527406692504883,11.272103309631348,-3.5882861614227295,57106.0,54064.0,52649.0,51761.0,-0.29999491024331576,-0.5196181808098181,0.5
2.508,TAKEOFF,incipient,1.0,0.6097729802131653,0.00413319980725646,0.4772268533706665,0.04541268199682236,-0.01509188674390316,0.10803215950727463,-0.49900880455970764,1.1544814109802246,3.9143710136413574,-3.7521331310272217,-4.94443416595459,-1.8584834337234497,49367.0,47912.0,51701.0,44547.0,0.6,0.0,0.5,-0.37958186864852905,0.5458764433860779,0.49195149540901184,-0.02923242561519146,0.0028435171116143465,0.06900416314601898,0.42128798365592957,-0.31889989972114563,5.712317943572998,1.5116207599639893,-5.777790546417236,-0.5300645232200623,53171.0,44361.0,53462.0,48017.0,-0.3000025448675481,0.51961377298239,0.5,-0.359755277633667,-0.5105427503585815,0.4633483290672302,0.004497176967561245,0.052119094878435135,0.15449604392051697,-0.14555762708187103,0.0998055636882782,1.8256816864013672,15.088746070861816,13.363224029541016,-4.313656806945801,56418.0,54173.0,53334.0,51679.0,-0.29999491024331576,-0.5196181808098181,0.5
2.528,TAKEOFF,incipient,1.0,0.6097729802131653,0.00413319980725646,0.4772268533706665,0.04140837863087654,-0.0136759914457798,0.10252968966960907,-0.6734381318092346,1.3182437419891357,3.9453485012054443,-1.3532044887542725,-3.425645589828491,-1.6478873491287231,50598.0,48121.0,50666.0,44311.0,0.6,0.0,0.5,-0.37958186864852905,0.5458764433860779,0.49195149540901184,-0.035482972860336304,0.008267880417406559,0.07339353859424591,0.4108434319496155,-0.1790657490491867,5.767047882080078,0.5203607678413391,-6.082428932189941,0.6367673873901367,52655.0,45522.0,53709.0,47010.0,-0.3000025448675481,0.51961377298239,0.5,-0.359755277633667,-0.5105427503585815,0.4633483290672302,0.00607001269236207,0.05032894015312195,0.15373972058296204,0.46034836769104004,-0.4156278669834137,1.7617367506027222,15.029583930969238,5.013759136199951,-3.0644195079803467,57211.0,53786.0,51945.0,51514.0,-0.29999491024331576,-0.5196181808098181,0.5
