timestamp_sec,flight_state,fault_type,fault_motor_health,cf1_X,cf1_Y,cf1_Z,cf1_VelX,cf1_VelY,cf1_VelZ,cf1_Roll,cf1_Pitch,cf1_Yaw,cf1_GyroX,cf1_GyroY,cf1_GyroZ,cf1_Motor1,cf1_Motor2,cf1_Motor3,cf1_Motor4,cf1_targ_x,cf1_targ_y,cf1_targ_z,cf2_X,cf2_Y,cf2_Z,cf2_VelX,cf2_VelY,cf2_VelZ,cf2_Roll,cf2_Pitch,cf2_Yaw,cf2_GyroX,cf2_GyroY,cf2_GyroZ,cf2_Motor1,cf2_Motor2,cf2_Motor3,cf2_Motor4,cf2_targ_x,cf2_targ_y,cf2_targ_z,cf3_X,cf3_Y,cf3_Z,cf3_VelX,cf3_VelY,cf3_VelZ,cf3_Roll,cf3_Pitch,cf3_Yaw,cf3_GyroX,cf3_GyroY,cf3_GyroZ,cf3_Motor1,cf3_Motor2,cf3_Motor3,cf3_Motor4,cf3_targ_x,cf3_targ_y,cf3_targ_z
0.002,TAKEOFF,abrupt,1.0,0.601222574710846,0.012529486790299416,0.0007092708838172257,0.0,0.0,0.0,0.0,0.0,0.0,0.0,0.0,0.0,0.0,0.0,0.0,0.0,0.6,0.0,0.5,-0.44676536321640015,0.6229454874992371,0.0018616181332617998,0.0,0.0,0.0,0.0,0.0,0.0,0.0,0.0,0.0,0.0,0.0,0.0,0.0,-0.3000025448675481,0.51961377298239,0.5,-0.4009250998497009,-0.5137073397636414,0.007100696675479412,0.0,0.0,0.0,0.0,0.0,0.0,0.0,0.0,0.0,0.0,0.0,0.0,0.0,-0.29999491024331576,-0.5196181808098181,0.5
0.016,TAKEOFF,abrupt,1.0,0.6051311492919922,0.011690856888890266,-0.0003294820198789239,0.023907192051410675,-0.007946656085550785,0.0010582013055682182,0.2782168686389923,0.18858230113983154,5.614599704742432,-0.19018301367759705,-0.20134615898132324,-0.06298653781414032,0.0,0.0,0.0,0.0,0.6,0.0,0.5,-0.4526914954185486,0.6277926564216614,0.006070558447390795,0.023951539769768715,-0.021881788969039917,-0.011558666825294495,-0.09383069723844528,-1.4809304475784302,-6.5913591384887695,-0.030055580660700798,0.06628719717264175,0.030504953116178513,0.0,0.0,0.0,0.0,-0.3000025448675481,0.51961377298239,0.5,-0.4009250998497009,-0.5137073397636414,0.007100696675479412,0.04474172741174698,-0.018382444977760315,0.0027700818609446287,0.19508415460586548,-0.38167914748191833,6.071558475494385,-0.0010632423218339682,-0.05096530169248581,-0.1753080189228058,0.0,0.0,0.0,0.0,-0.29999491024331576,-0.5196181808098181,0.5
0.036,TAKEOFF,abrupt,1.0,0.6051311492919922,0.011690856888890266,-0.0003294820198789239,0.036753010004758835,-0.0010398325975984335,-0.004035857040435076,0.23007741570472717,0.10550184547901154,5.543171405792236,-0.10171611607074738,0.15099628269672394,0.2686924338340759,0.0,0.0,0.0,0.0,0.6,0.0,0.5,-0.4526914954185486,0.6277926564216614,0.006070558447390795,-0.013139131478965282,0.006859802640974522,0.013087290339171886,-0.31345194578170776,-1.1244871616363525,-6.575307369232178,-0.06664090603590012,0.12210391461849213,-0.11753487586975098,0.0,0.0,0.0,0.0,-0.3000025448675481,0.51961377298239,0.5,-0.4009250998497009,-0.5137073397636414,0.007100696675479412,0.03881380707025528,-0.028252653777599335,0.007856572978198528,0.20442534983158112,-0.3881581723690033,6.085407257080078,-0.26537737250328064,-0.16518902778625488,-0.08174657821655273,0.0,0.0,0.0,0.0,-0.29999491024331576,-0.5196181808098181,0.5
0.056,TAKEOFF,abrupt,1.0,0.6051311492919922,0.011690856888890266,-0.0003294820198789239,0.03765564039349556,-0.0005512238712981343,-0.004247273318469524,0.22794850170612335,0.1047448143362999,5.5446696281433105,-0.15574122965335846,0.1598045825958252,-0.07714037597179413,42356.0,36215.0,41077.0,37169.0,0.6,0.0,0.5,-0.4526914954185486,0.6277926564216614,0.006070558447390795,-0.012574201449751854,0.007516004610806704,0.009721958078444004,-0.31593188643455505,-1.125386118888855,-6.567739009857178,-0.1809767186641693,-0.22331608831882477,-1.2588316202163696,35991.0,41832.0,36493.0,43069.0,-0.3000025448675481,0.51961377298239,0.5,-0.4009250998497009,-0.5137073397636414,0.007100696675479412,0.03629341349005699,-0.026501812040805817,0.01866796240210533,0.24745461344718933,-0.3141675591468811,6.055158615112305,-0.08047064393758774,0.04422984644770622,-0.026701169088482857,43192.0,36488.0,41219.0,36511.0,-0.29999491024331576,-0.5196181808098181,0.5
0.075,TAKEOFF,abrupt,1.0,0.6058894991874695,0.012734035961329937,-0.0007254794472828507,0.03765564039349556,-0.0005512238712981343,-0.004247273318469524,0.09435151517391205,0.18842066824436188,5.608854293823242,-0.10919446498155594,-0.10865563899278641,-0.37984004616737366,42374.0,36657.0,41783.0,37295.0,0.6,0.0,0.5,-0.4526914954185486,0.6277926564216614,0.006070558447390795,-0.012574201449751854,0.007516004610806704,0.009721958078444004,-0.31977903842926025,-1.1350297927856445,-6.6176347732543945,0.22337190806865692,0.9032315611839294,1.4212486743927002,35765.0,42886.0,36108.0,44052.0,-0.3000025448675481,0.51961377298239,0.5,-0.4009250998497009,-0.5137073397636414,0.007100696675479412,0.03629341349005699,-0.026501812040805817,0.01866796240210533,0.2254084199666977,-0.28858909010887146,6.004642963409424,-0.022938428446650505,0.08413207530975342,0.4081009030342102,43120.0,36616.0,41344.0,36353.0,-0.29999491024331576,-0.5196181808098181,0.5
0.095,TAKEOFF,abrupt,1.0,0.6058894991874695,0.012734035961329937,-0.0007254794472828507,0.02461857534945011,0.014056055806577206,-0.007343518082052469,0.20365186035633087,0.2704363465309143,5.582007884979248,-0.4796530604362488,-1.1231606006622314,0.510107159614563,42604.0,38339.0,42789.0,37541.0,0.6,0.0,0.5,-0.4526914954185486,0.6277926564216614,0.006070558447390795,-0.012257032096385956,0.008041257970035076,0.00972652155905962,-0.31977903842926025,-1.1350297927856445,-6.6176347732543945,0.22337190806865692,0.9032315611839294,1.4212486743927002,35808.0,43978.0,39097.0,43572.0,-0.3000025448675481,0.51961377298239,0.5,-0.4009250998497009,-0.5137073397636414,0.007100696675479412,0.023822247982025146,-0.02161429449915886,0.0047005778178572655,0.16178861260414124,-0.18699611723423004,5.975439548492432,0.3979816734790802,-0.30989331007003784,0.1345328986644745,43749.0,37187.0,43013.0,38501.0,-0.29999491024331576,-0.5196181808098181,0.5
0.116,TAKEOFF,abrupt,1.0,0.6058894991874695,0.012734035961329937,-0.0007254794472828507,0.022114833816885948,-0.003292804816737771,-0.004115386866033077,0.17006228864192963,0.22097660601139069,5.572671413421631,0.39497411251068115,-0.4431747496128082,-0.3768971860408783,44482.0,36578.0,42724.0,39784.0,0.6,0.0,0.5,-0.4491034150123596,0.6244642734527588,0.005683633033186197,-0.0068949307315051556,0.00837358646094799,0.006649663206189871,-0.3272460997104645,-1.1451549530029297,-6.61295747756958,2.657130241394043,-2.23341965675354,-1.0682570934295654,37202.0,39783.0,38363.0,49581.0,-0.3000025448675481,0.51961377298239,0.5,-0.4053002893924713,-0.5125705003738403,0.007221924141049385,0.02761962078511715,-0.022935759276151657,0.0004020395572297275,0.1701485812664032,-0.2169056087732315,6.012766361236572,0.6621749997138977,-0.47131475806236267,1.2369085550308228,44627.0,39486.0,44254.0,38345.0,-0.29999491024331576,-0.5196181808098181,0.5
0.137,TAKEOFF,abrupt,1.0,0.6058894991874695,0.012734035961329937,-0.0007254794472828507,0.009211240336298943,-0.005526836961507797,0.00017485517309978604,0.21057960391044617,0.30600467324256897,5.579286575317383,-5.178492069244385,-5.393848896026611,-0.9140719175338745,44878.0,39206.0,43136.0,37959.0,0.6,0.0,0.5,-0.4491034150123596,0.6244642734527588,0.005683633033186197,0.020322928205132484,-0.013139099813997746,0.003314958419650793,-0.1738823801279068,-1.3489737510681152,-6.678544521331787,-1.5269553661346436,-0.03905791789293289,5.819149494171143,39955.0,48317.0,38200.0,42304.0,-0.3000025448675481,0.51961377298239,0.5,-0.4053002893924713,-0.5125705003738403,0.007221924141049385,0.03582095354795456,-0.027930108830332756,-0.001631591352634132,0.21002322435379028,-0.26534709334373474,6.026783466339111,0.047824207693338394,0.3215981721878052,0.44219398498535156,46867.0,38229.0,43759.0,41018.0,-0.29999491024331576,-0.5196181808098181,0.5
0.156,TAKEOFF,abrupt,1.0,0.6058894991874695,0.012734035961329937,-0.0007254794472828507,0.015366741456091404,-0.001120310858823359,-0.001196855679154396,0.14981326460838318,0.2538709044456482,5.594322681427002,4.524518966674805,4.80515718460083,1.320020318031311,46251.0,39674.0,42511.0,39012.0,0.6,0.0,0.5,-0.4491034150123596,0.6244642734527588,0.005683633033186197,0.016614068299531937,-0.005088988225907087,0.004310536198318005,-0.1343015730381012,-1.295999526977539,-6.86174201965332,-2.5340964794158936,4.236158847808838,-10.73896312713623,39497.0,47383.0,37901.0,46205.0,-0.3000025448675481,0.51961377298239,0.5,-0.4053002893924713,-0.5125705003738403,0.007221924141049385,0.03582095354795456,-0.027930108830332756,-0.001631591352634132,0.20551760494709015,-0.2704973816871643,6.024166107177734,0.01303187943994999,0.42476776242256165,-0.1726619452238083,47051.0,40819.0,44965.0,39971.0,-0.29999491024331576,-0.5196181808098181,0.5
0.175,TAKEOFF,abrupt,1.0,0.6058894991874695,0.012734035961329937,-0.0007254794472828507,0.015366741456091404,-0.001120310858823359,-0.001196855679154396,0.16442447900772095,0.21031905710697174,5.647594928741455,-3.091876745223999,-4.420332908630371,0.29305002093315125,46714.0,38632.0,42932.0,40461.0,0.6,0.0,0.5,-0.4491034150123596,0.6244642734527588,0.005683633033186197,0.026801088824868202,-0.00980224646627903,-0.0006489481893368065,-0.1343015730381012,-1.295999526977539,-6.86174201965332,-2.5340964794158936,4.236158847808838,-10.73896312713623,39407.0,45823.0,39081.0,48980.0,-0.3000025448675481,0.51961377298239,0.5,-0.4053002893924713,-0.5125705003738403,0.007221924141049385,0.006215387023985386,-0.007761804386973381,-0.0022804110776633024,0.009906313382089138,-0.039231471717357635,5.984280586242676,-1.0799788236618042,-0.8626570105552673,-0.3507060408592224,46494.0,42611.0,45602.0,40703.0,-0.29999491024331576,-0.5196181808098181,0.5
0.195,TAKEOFF,abrupt,1.0,0.6083654761314392,0.014171919785439968,-0.0002065286535071209,0.028259165585041046,0.00013495412713382393,0.0038427822291851044,0.13758057355880737,0.1621111035346985,5.542978763580322,7.206465721130371,6.082184314727783,-11.600948333740234,47694.0,40521.0,40615.0,41125.0,0.6,0.0,0.5,-0.4491034150123596,0.6244642734527588,0.005683633033186197,0.029552116990089417,-0.010495142079889774,0.005677149631083012,-0.13373656570911407,-1.2926862239837646,-7.251446723937988,3.656644344329834,-6.484518527984619,-10.248448371887207,40320.0,45969.0,38102.0,49858.0,-0.3000025448675481,0.51961377298239,0.5,-0.4046787917613983,-0.5145895481109619,0.008079667575657368,0.017048027366399765,-0.014821309596300125,0.001706141047179699,0.07856007665395737,-0.1278826743364334,5.9171905517578125,-0.7834934592247009,-0.06150451675057411,-11.558152198791504,47162.0,41463.0,45065.0,42069.0,-0.29999491024331576,-0.5196181808098181,0.5
0.216,TAKEOFF,abrupt,1.0,0.6083654761314392,0.014171919785439968,-0.0002065286535071209,0.027952315285801888,-0.0005830114241689444,0.004512822721153498,0.22533681988716125,0.09645569324493408,5.290266513824463,-2.335261583328247,-24.4080753326416,-1.6515436172485352,47259.0,32251.0,43043.0,46154.0,0.6,0.0,0.5,-0.44706618785858154,0.624276340007782,0.004666458815336227,0.03440496698021889,-0.011184079572558403,0.001889025210402906,-0.07551876455545425,-1.2206374406814575,-7.399106025695801,-8.209473609924316,2.9634714126586914,3.175276279449463,42245.0,47220.0,36539.0,49725.0,-0.3000025448675481,0.51961377298239,0.5,-0.4046787917613983,-0.5145895481109619,0.008079667575657368,0.009459316730499268,-0.011043347418308258,-0.0014078988460823894,0.07736749947071075,-0.11804628372192383,5.6689558029174805,-0.8190176486968994,-1.150532841682434,0.6330240368843079,46492.0,42207.0,48301.0,40752.0,-0.29999491024331576,-0.5196181808098181,0.5
0.236,TAKEOFF,abrupt,1.0,0.6083654761314392,0.014171919785439968,-0.0002065286535071209,0.02565164677798748,-0.001668781042098999,0.012426500208675861,0.16726553440093994,0.11020922660827637,5.338525772094727,-10.577642440795898,-3.9573843479156494,-5.242140769958496,43689.0,43988.0,46496.0,38397.0,0.6,0.0,0.5,-0.44706618785858154,0.624276340007782,0.004666458815336227,0.03978068754076958,-0.010239416733384132,-0.001345770200714469,-0.16062511503696442,-1.242788314819336,-7.361839771270752,8.145851135253906,-3.9936492443084717,-2.3028409481048584,43194.0,45790.0,39828.0,49577.0,-0.3000025448675481,0.51961377298239,0.5,-0.4046787917613983,-0.5145895481109619,0.008079667575657368,0.009618562646210194,-0.011186027899384499,4.583610916597536e-06,0.04588951915502548,-0.05316801369190216,5.701816558837891,1.599188208580017,-7.68515157699585,5.859170913696289,45254.0,41755.0,49771.0,43066.0,-0.29999491024331576,-0.5196181808098181,0.5
0.256,TAKEOFF,abrupt,1.0,0.6083654761314392,0.014171919785439968,-0.0002065286535071209,-0.004780628718435764,-0.025170056149363518,0.005499883089214563,0.10657414048910141,0.1722007840871811,5.15790319442749,11.027674674987793,11.240795135498047,-9.123201370239258,49433.0,43937.0,39688.0,39453.0,0.6,0.0,0.5,-0.44706618785858154,0.624276340007782,0.004666458815336227,0.044701553881168365,-0.008748692460358143,-0.002325545297935605,-0.15894533693790436,-1.2188626527786255,-7.271864891052246,2.19667649269104,-6.072559833526611,16.49520492553711,41953.0,45376.0,41350.0,50888.0,-0.3000025448675481,0.51961377298239,0.5,-0.4046787917613983,-0.5145895481109619,0.008079667575657368,0.009774071164429188,-0.011271098628640175,-0.0011496706865727901,0.01860208995640278,-0.062031254172325134,5.762502670288086,1.3713849782943726,-2.6177573204040527,-15.55567741394043,43482.0,35217.0,51382.0,48717.0,-0.29999491024331576,-0.5196181808098181,0.5
0.275,TAKEOFF,abrupt,1.0,0.6083654761314392,0.014171919785439968,-0.0002065286535071209,0.000501961971167475,-0.014805559068918228,0.0058070337399840355,0.3264005780220032,0.282209575176239,5.020456314086914,-5.705699443817139,-11.031289100646973,-13.476179122924805,43289.0,38960.0,46702.0,45597.0,0.6,0.0,0.5,-0.44706618785858154,0.624276340007782,0.004666458815336227,0.04854665324091911,-0.006391807459294796,-0.005571555811911821,-0.08228623867034912,-1.1362543106079102,-6.8806047439575195,0.6416776180267334,1.0024157762527466,21.17337989807129,45933.0,45828.0,41195.0,48721.0,-0.3000025448675481,0.51961377298239,0.5,-0.4046787917613983,-0.5145895481109619,0.008079667575657368,-0.005727752111852169,0.005073257256299257,0.0005815980257466435,0.01860208995640278,-0.062031254172325134,5.762502670288086,1.3713849782943726,-2.6177573204040527,-15.55567741394043,48617.0,45376.0,45152.0,43642.0,-0.29999491024331576,-0.5196181808098181,0.5
0.296,TAKEOFF,abrupt,1.0,0.606909453868866,0.011823692359030247,-0.0010387030197307467,0.004458176903426647,-0.015212323516607285,-0.0018797115189954638,0.23548799753189087,0.37138715386390686,4.7039289474487305,-5.1120476722717285,-8.96426773071289,-9.971651077270508,46855.0,41169.0,44258.0,44324.0,0.6,0.0,0.5,-0.4418841302394867,0.6246418356895447,0.0035132556222379208,0.05273500457406044,-0.006403801497071981,-0.0023500199895352125,-0.048601917922496796,-1.1239203214645386,-6.346864223480225,-1.2589924335479736,-0.9663723707199097,30.202043533325195,44730.0,46565.0,43716.0,47967.0,-0.3000025448675481,0.51961377298239,0.5,-0.4086986482143402,-0.5107528567314148,0.006278864108026028,-0.005727752111852169,0.005073257256299257,0.0005815980257466435,-0.12160655111074448,0.045342061668634415,5.464150428771973,-0.5672203898429871,1.9284895658493042,-19.862165451049805,47495.0,47813.0,46337.0,42404.0,-0.29999491024331576,-0.5196181808098181,0.5
0.315,TAKEOFF,abrupt,1.0,0.606909453868866,0.011823692359030247,-0.0010387030197307467,0.0031095852609723806,-0.015685180202126503,-0.005451795645058155,0.09072984009981155,0.42346644401550293,4.402696132659912,2.662457227706909,3.888245105743408,-15.284486770629883,48858.0,42661.0,41367.0,44525.0,0.6,0.0,0.5,-0.4418841302394867,0.6246418356895447,0.0035132556222379208,0.0605311393737793,-0.006783403921872377,-0.0005493307253345847,-0.04774964973330498,-1.1295561790466309,-5.769077777862549,-0.9174296259880066,-6.003096103668213,32.533878326416016,46487.0,43423.0,43489.0,50120.0,-0.3000025448675481,0.51961377298239,0.5,-0.4086986482143402,-0.5107528567314148,0.006278864108026028,-0.009138695895671844,-0.001872161403298378,0.0013156709028407931,-0.1063634380698204,0.05084383487701416,5.03524923324585,2.7863564491271973,0.1293773204088211,-21.99678611755371,46370.0,46348.0,47927.0,44977.0,-0.29999491024331576,-0.5196181808098181,0.5
0.335,TAKEOFF,abrupt,1.0,0.606909453868866,0.011823692359030247,-0.0010387030197307467,-0.010432463139295578,0.0048312172293663025,0.002897872356697917,0.00452724052593112,0.41872096061706543,4.159712791442871,3.047534942626953,2.586869955062866,-19.674901962280273,43905.0,44085.0,46533.0,44703.0,0.6,0.0,0.5,-0.4418841302394867,0.6246418356895447,0.0035132556222379208,0.04860284551978111,0.008822950534522533,0.00730927474796772,-0.11051340401172638,-0.93923419713974,-5.1801347732543945,4.908239841461182,-0.39318570494651794,29.07500457763672,49093.0,43992.0,41954.0,49306.0,-0.3000025448675481,0.51961377298239,0.5,-0.4086986482143402,-0.5107528567314148,0.006278864108026028,0.02055920846760273,-0.02072894386947155,0.006547524593770504,-0.014708821661770344,0.08298438042402267,4.530023574829102,0.29551345109939575,-1.7470182180404663,-20.187694549560547,48279.0,45130.0,46270.0,47144.0,-0.29999491024331576,-0.5196181808098181,0.5
0.355,TAKEOFF,abrupt,1.0,0.606909453868866,0.011823692359030247,-0.0010387030197307467,-0.011624361388385296,0.0045910668559372425,-0.001738554798066616,0.03189125284552574,0.37834030389785767,3.7596378326416016,-11.786375999450684,-7.879796981811523,-22.06077766418457,43682.0,45849.0,46832.0,43713.0,0.6,0.0,0.5,-0.4418841302394867,0.6246418356895447,0.0035132556222379208,0.04860284551978111,0.008822950534522533,0.00730927474796772,-0.13231857120990753,-0.9864063858985901,-4.641465663909912,-1.736884593963623,-1.9271172285079956,24.71017074584961,44541.0,41222.0,47419.0,51380.0,-0.3000025448675481,0.51961377298239,0.5,-0.4086986482143402,-0.5107528567314148,0.006278864108026028,0.03048763796687126,-0.026432594284415245,0.002213907428085804,0.16902388632297516,-0.1701471507549286,4.178508758544922,-5.519502639770508,-3.234208106994629,-26.513334274291992,50167.0,48069.0,42549.0,46155.0,-0.29999491024331576,-0.5196181808098181,0.5
0.375,TAKEOFF,abrupt,1.0,0.6030737161636353,0.017296407371759415,0.00010521584044909105,-0.013454376719892025,0.0047799209132790565,0.003289023181423545,-0.11619039624929428,0.5555415153503418,3.3546464443206787,-2.0358755588531494,-1.2058632373809814,-11.943754196166992,45948.0,46263.0,46056.0,42979.0,0.6,0.0,0.5,-0.4418841302394867,0.6246418356895447,0.0035132556222379208,0.0072294739075005054,0.027760986238718033,0.020361697301268578,-0.17781168222427368,-0.5510717630386353,-4.042393684387207,2.797884225845337,-8.122843742370605,24.825117111206055,45200.0,45425.0,47534.0,48507.0,-0.3000025448675481,0.51961377298239,0.5,-0.40247204899787903,-0.516516923904419,0.008446591906249523,0.027634143829345703,-0.022947371006011963,0.016660017892718315,0.21573156118392944,-0.2371317446231842,3.682309627532959,2.2681736946105957,0.18888334929943085,-31.737485885620117,46752.0,48151.0,46895.0,47100.0,-0.29999491024331576,-0.5196181808098181,0.5
0.395,TAKEOFF,abrupt,1.0,0.6030737161636353,0.017296407371759415,0.00010521584044909105,-0.029342573136091232,0.022508488968014717,0.0019818127620965242,-0.2704722583293915,0.6688880920410156,3.1437199115753174,5.090641021728516,3.7063846588134766,-22.322221755981445,44796.0,45456.0,46276.0,45858.0,0.6,0.0,0.5,-0.4418841302394867,0.6246418356895447,0.0035132556222379208,0.0072294739075005054,0.027760986238718033,0.020361697301268578,-0.17247682809829712,-0.5502679944038391,-3.5958659648895264,4.513918876647949,-0.9995402693748474,22.201337814331055,45363.0,42056.0,47498.0,51319.0,-0.3000025448675481,0.51961377298239,0.5,-0.40247204899787903,-0.516516923904419,0.008446591906249523,0.027634143829345703,-0.022947371006011963,0.016660017892718315,0.16446056962013245,-0.20849773287773132,3.026564598083496,3.3187155723571777,-2.2857229709625244,-22.17067527770996,48749.0,45543.0,45451.0,49150.0,-0.29999491024331576,-0.5196181808098181,0.5
0.416,TAKEOFF,abrupt,1.0,0.6030737161636353,0.017296407371759415,0.00010521584044909105,-0.03153049200773239,0.023160288110375404,0.0064162625931203365,-0.20239025354385376,0.5991126298904419,2.7083170413970947,5.63273286819458,4.707736968994141,-17.9739933013916,45985.0,46376.0,46001.0,45122.0,0.6,0.0,0.5,-0.45047643780708313,0.6314576268196106,0.006598600186407566,0.00911862775683403,0.028305647894740105,0.021942676976323128,-0.17247682809829712,-0.5502679944038391,-3.5958659648895264,4.513918876647949,-0.9995402693748474,22.201337814331055,45787.0,43244.0,47699.0,50770.0,-0.3000025448675481,0.51961377298239,0.5,-0.40247204899787903,-0.516516923904419,0.008446591906249523,0.03226153180003166,-0.02503770776093006,0.010776403360068798,0.2055654525756836,-0.23684869706630707,2.609910011291504,-1.8420372009277344,-0.9815362095832825,-16.5025577545166,49564.0,46105.0,46145.0,48714.0,-0.29999491024331576,-0.5196181808098181,0.5
0.435,TAKEOFF,abrupt,1.0,0.6030737161636353,0.017296407371759415,0.00010521584044909105,-0.03339974954724312,0.023494716733694077,0.0034919565077871084,-0.09355819225311279,0.5335469841957092,2.3494315147399902,-0.44735291600227356,-0.012230094522237778,-10.568432807922363,44963.0,45295.0,48392.0,45857.0,0.6,0.0,0.5,-0.45047643780708313,0.6314576268196106,0.006598600186407566,-0.01221604272723198,0.045292653143405914,0.037906449288129807,-0.29263296723365784,-0.24758586287498474,-2.553809642791748,-4.036690711975098,-3.911874771118164,26.98531150817871,46616.0,45194.0,48059.0,48561.0,-0.3000025448675481,0.51961377298239,0.5,-0.40247204899787903,-0.516516923904419,0.008446591906249523,0.03307383880019188,-0.025676976889371872,0.009156609885394573,0.1830141246318817,-0.20635421574115753,2.10872220993042,-2.860711097717285,-4.082217693328857,-1.1958214044570923,49781.0,48056.0,47012.0,46909.0,-0.29999491024331576,-0.5196181808098181,0.5
0.455,TAKEOFF,abrupt,1.0,0.6030737161636353,0.017296407371759415,0.00010521584044909105,-0.03530276194214821,0.023772049695253372,0.00500625791028142,-0.12283563613891602,0.5718372464179993,2.188127279281616,-7.517918586730957,-8.369598388671875,-1.7639387845993042,45716.0,45511.0,48680.0,45489.0,0.6,0.0,0.5,-0.45047643780708313,0.6314576268196106,0.006598600186407566,-0.01221604272723198,0.045292653143405914,0.037906449288129807,-0.28242242336273193,-0.23971839249134064,-1.983202338218689,-4.006975173950195,-5.369207382202148,29.58354377746582,48716.0,46394.0,46876.0,47089.0,-0.3000025448675481,0.51961377298239,0.5,-0.40247204899787903,-0.516516923904419,0.008446591906249523,0.029978442937135696,-0.016486650332808495,0.02708645537495613,0.1830141246318817,-0.20635421574115753,2.10872220993042,-2.860711097717285,-4.082217693328857,-1.1958214044570923,51144.0,46836.0,47738.0,47130.0,-0.29999491024331576,-0.5196181808098181,0.5
0.475,TAKEOFF,abrupt,1.0,0.599624514579773,0.019669752568006516,0.0005046186270192266,-0.0376041904091835,0.024448465555906296,0.0011143434094265103,-0.2561448812484741,0.7080556750297546,2.148447275161743,3.408137798309326,5.388916015625,-7.058230876922607,47398.0,46642.0,47163.0,46032.0,0.6,0.0,0.5,-0.45047643780708313,0.6314576268196106,0.006598600186407566,0.000968423904851079,0.01868581958115101,0.028603343293070793,-0.04853249341249466,-0.2695710062980652,-1.4084162712097168,-9.488336563110352,-9.062050819396973,30.81873321533203,47205.0,48837.0,48470.0,45578.0,-0.3000025448675481,0.51961377298239,0.5,-0.39965924620628357,-0.5171453356742859,0.012683799490332603,0.030520733445882797,-0.016674166545271873,0.022601837292313576,0.06559967249631882,-0.1555653065443039,2.0495288372039795,-0.2638106942176819,-2.0391459465026855,6.329851150512695,52195.0,47522.0,47101.0,45815.0,-0.29999491024331576,-0.5196181808098181,0.5
0.495,TAKEOFF,abrupt,1.0,0.599624514579773,0.019669752568006516,0.0005046186270192266,-0.03983307257294655,0.02502133883535862,0.004416939336806536,-0.13834403455257416,0.5791792273521423,2.012662410736084,6.440555572509766,8.379874229431152,-6.129755973815918,47168.0,46428.0,47993.0,46401.0,0.6,0.0,0.5,-0.44897469878196716,0.6300914883613586,0.006466625723987818,0.000968423904851079,0.01868581958115101,0.028603343293070793,0.05420280620455742,-0.13433200120925903,-0.8735110759735107,-4.793667316436768,3.473132610321045,29.26584243774414,46708.0,47786.0,49665.0,46342.0,-0.3000025448675481,0.51961377298239,0.5,-0.39965924620628357,-0.5171453356742859,0.012683799490332603,0.030520733445882797,-0.016674166545271873,0.022601837292313576,0.08630706369876862,-0.15142440795898438,2.19632887840271,-4.9583330154418945,-9.74552059173584,14.919106483459473,51344.0,45801.0,49737.0,46924.0,-0.29999491024331576,-0.5196181808098181,0.5
0.516,TAKEOFF,abrupt,1.0,0.599624514579773,0.019669752568006516,0.0005046186270192266,-0.041264764964580536,0.02503174915909767,-0.0018513707909733057,0.0036733662709593773,0.393017441034317,1.9180275201797485,-0.2930663526058197,-0.05671481415629387,3.0437302589416504,46757.0,44543.0,50167.0,47684.0,0.6,0.0,0.5,-0.44897469878196716,0.6300914883613586,0.006466625723987818,0.005318912211805582,0.01506880484521389,0.023239389061927795,-0.06940054148435593,0.07502201944589615,-0.26820987462997437,4.708629131317139,-0.7645842432975769,31.580604553222656,46471.0,48184.0,52376.0,45986.0,-0.3000025448675481,0.51961377298239,0.5,-0.39965924620628357,-0.5171453356742859,0.012683799490332603,0.031105997040867805,-0.016985895112156868,0.03186124190688133,0.07075626403093338,-0.09627929329872131,2.494004964828491,-9.510152816772461,-0.4314253032207489,11.396601676940918,50349.0,46962.0,51073.0,46366.0,-0.29999491024331576,-0.5196181808098181,0.5
0.536,TAKEOFF,abrupt,1.0,0.599624514579773,0.019669752568006516,0.0005046186270192266,-0.042633961886167526,0.02494470588862896,-0.0004199668765068054,-0.007021002005785704,0.41380757093429565,2.0199270248413086,-8.253482818603516,-6.728002071380615,9.987161636352539,48378.0,47799.0,49701.0,44573.0,0.6,0.0,0.5,-0.44897469878196716,0.6300914883613586,0.006466625723987818,0.004504783544689417,0.016223197802901268,0.02086532488465309,-0.10742568969726562,0.34167179465293884,0.3918772041797638,1.8284871578216553,-8.827947616577148,33.34986877441406,47645.0,46196.0,52888.0,47611.0,-0.3000025448675481,0.51961377298239,0.5,-0.39965924620628357,-0.5171453356742859,0.012683799490332603,-0.014128230512142181,0.03101443499326706,-0.006221116986125708,-0.40683093667030334,0.16621840000152588,2.8620107173919678,2.153183698654175,-3.0828709602355957,3.2447006702423096,50562.0,48959.0,51732.0,47247.0,-0.29999491024331576,-0.5196181808098181,0.5
0.555,TAKEOFF,abrupt,1.0,0.599624514579773,0.019669752568006516,0.0005046186270192266,-0.04431317746639252,0.025175370275974274,-0.001485462300479412,-0.07321365177631378,0.4991219639778137,2.192535161972046,6.299059867858887,13.24443244934082,2.500819444656372,51247.0,47145.0,46476.0,46717.0,0.6,0.0,0.5,-0.44897469878196716,0.6300914883613586,0.006466625723987818,0.004940299317240715,0.015945211052894592,0.01846751570701599,0.05361532047390938,0.6544229388237,1.0465127229690552,-4.05049991607666,-20.676477432250977,29.501148223876953,50951.0,48929.0,50999.0,44938.0,-0.3000025448675481,0.51961377298239,0.5,-0.39965924620628357,-0.5171453356742859,0.012683799490332603,-0.014910232275724411,0.032047759741544724,-0.002030725125223398,-0.3746391236782074,0.193145751953125,2.89486026763916,8.980230331420898,5.643156051635742,0.07118303328752518,51408.0,44618.0,50882.0,52577.0,-0.29999491024331576,-0.5196181808098181,0.5
0.575,TAKEOFF,abrupt,1.0,0.5934450626373291,0.018567653372883797,0.00236703478731215,-0.052998341619968414,0.012330146506428719,0.0035347717348486185,0.1606336385011673,0.21200647950172424,2.2921645641326904,-7.469116687774658,-14.278631210327148,-3.7293615341186523,47642.0,48692.0,50232.0,46213.0,0.6,0.0,0.5,-0.44897469878196716,0.6300914883613586,0.006466625723987818,0.004938593599945307,0.015207676216959953,0.020286934450268745,-0.07143484055995941,1.1285480260849,1.6220099925994873,1.9706768989562988,-17.666353225708008,31.73960304260254,48067.0,44488.0,53366.0,49262.0,-0.3000025448675481,0.51961377298239,0.5,-0.39965924620628357,-0.5171453356742859,0.012683799490332603,-0.01618855819106102,0.028194744139909744,0.0018221331993117929,-0.2632753551006317,0.08162584155797958,2.892238140106201,-4.483120441436768,-28.44741439819336,-0.20775558054447174,52454.0,50202.0,50669.0,47753.0,-0.29999491024331576,-0.5196181808098181,0.5
0.595,TAKEOFF,abrupt,1.0,0.5934450626373291,0.018567653372883797,0.00236703478731215,-0.05330709367990494,0.01072864793241024,0.008056068792939186,0.1897624284029007,0.5027409791946411,2.2913880348205566,-9.4082612991333,1.2506872415542603,-2.623689651489258,47575.0,47757.0,50799.0,47405.0,0.6,0.0,0.5,-0.4510621428489685,0.6334599852561951,0.008302743546664715,0.00662691006436944,0.0136429937556386,0.01829945482313633,0.04542176425457001,1.7326345443725586,2.1924192905426025,-5.459735870361328,-34.53466796875,25.150724411010742,50978.0,50860.0,52675.0,43315.0,-0.3000025448675481,0.51961377298239,0.5,-0.40870723128318787,-0.5081636309623718,0.005668199621140957,-0.01618855819106102,0.028194744139909744,0.0018221331993117929,-0.27085649967193604,0.4544784724712372,2.874311923980713,13.175152778625488,-0.43135491013526917,-0.72515869140625,52269.0,50190.0,51213.0,48708.0,-0.29999491024331576,-0.5196181808098181,0.5
0.616,TAKEOFF,abrupt,1.0,0.5934450626373291,0.018567653372883797,0.00236703478731215,-0.054295893758535385,0.010394138284027576,0.006693345028907061,0.00025581326917745173,0.47765037417411804,2.3011722564697266,2.109276056289673,-0.9761112928390503,-0.9748705625534058,48844.0,49395.0,50377.0,45957.0,0.6,0.0,0.5,-0.4510621428489685,0.6334599852561951,0.008302743546664715,-0.017876697704195976,0.021673697978258133,0.04241658374667168,-0.1369192898273468,2.6519320011138916,2.6872172355651855,6.579840660095215,-47.121463775634766,23.882038116455078,47629.0,50493.0,55175.0,44787.0,-0.3000025448675481,0.51961377298239,0.5,-0.40870723128318787,-0.5081636309623718,0.005668199621140957,-0.01784324273467064,0.027159007266163826,0.0073067424818873405,0.15170863270759583,0.47682130336761475,2.8291471004486084,16.883115768432617,-2.0717287063598633,-1.639658808708191,52346.0,52232.0,51618.0,47249.0,-0.29999491024331576,-0.5196181808098181,0.5
0.636,TAKEOFF,abrupt,1.0,0.5934450626373291,0.018567653372883797,0.00236703478731215,-0.0554041713476181,0.00980237778276205,0.009423710405826569,0.12130005657672882,0.5675270557403564,2.3285157680511475,12.224468231201172,-17.492944717407227,2.6253890991210938,48683.0,51036.0,51463.0,44118.0,0.6,0.0,0.5,-0.4510621428489685,0.6334599852561951,0.008302743546664715,-0.02822164073586464,0.02183268778026104,0.05069165304303169,0.04777128994464874,3.6077706813812256,3.1584911346435547,5.72244930267334,-51.49531173706055,22.014598846435547,49367.0,51827.0,54618.0,42445.0,-0.3000025448675481,0.51961377298239,0.5,-0.40870723128318787,-0.5081636309623718,0.005668199621140957,-0.004863383714109659,0.020311646163463593,0.021243374794721603,0.6304665803909302,0.37298768758773804,2.7999372482299805,11.527928352355957,-4.764834403991699,-6.400841236114502,52080.0,50375.0,51922.0,50018.0,-0.29999491024331576,-0.5196181808098181,0.5
0.656,TAKEOFF,abrupt,1.0,0.5934450626373291,0.018567653372883797,0.00236703478731215,-0.05739915743470192,0.008244789205491543,0.011968404054641724,0.4107407331466675,0.8800742626190186,2.4198009967803955,11.758577346801758,-13.187562942504883,5.4018120765686035,48823.0,50241.0,51813.0,45831.0,0.6,0.0,0.5,-0.4510621428489685,0.6334599852561951,0.008302743546664715,-0.02822164073586464,0.02183268778026104,0.05069165304303169,0.13594092428684235,4.6964850425720215,3.590883493423462,-9.371343612670898,-61.08822250366211,20.458818435668945,44599.0,53718.0,57715.0,39474.0,-0.3000025448675481,0.51961377298239,0.5,-0.40870723128318787,-0.5081636309623718,0.005668199621140957,-0.004509227350354195,0.01845487952232361,0.020774437114596367,0.6292595267295837,0.45643290877342224,2.6601834297180176,2.096134662628174,9.268078804016113,-9.448446273803711,53593.0,50245.0,50273.0,51362.0,-0.29999491024331576,-0.5196181808098181,0.5
0.675,TAKEOFF,abrupt,1.0,0.5964238047599792,0.016618559136986732,0.0024578054435551167,-0.0503748320043087,0.006173925008624792,0.015271731652319431,0.6432479023933411,1.1837854385375977,2.5393810272216797,11.329931259155273,1.2083219289779663,6.359523296356201,51751.0,47646.0,49992.0,48569.0,0.6,0.0,0.5,-0.4510621428489685,0.6334599852561951,0.008302743546664715,-0.035139091312885284,0.01740923337638378,0.045177847146987915,-0.14496243000030518,5.763963222503662,4.061395645141602,3.4169130325317383,-35.723533630371094,20.96095848083496,46930.0,50105.0,58218.0,44582.0,-0.3000025448675481,0.51961377298239,0.5,-0.40620166063308716,-0.5068336725234985,0.007953121326863766,-0.004509227350354195,0.01845487952232361,0.020774437114596367,0.6726189255714417,0.32756507396698,2.516921043395996,-7.685929298400879,1.54336678981781,-10.257828712463379,50221.0,50531.0,54055.0,51958.0,-0.29999491024331576,-0.5196181808098181,0.5
0.696,TAKEOFF,abrupt,1.0,0.5964238047599792,0.016618559136986732,0.0024578054435551167,-0.0503748320043087,0.006173925008624792,0.015271731652319431,0.865504264831543,0.8672629594802856,2.612668514251709,5.2298712730407715,34.54253005981445,9.02241039276123,51994.0,47737.0,50641.0,48835.0,0.6,0.0,0.5,-0.451603502035141,0.6337482929229736,0.01038882602006197,-0.06517886370420456,0.012368469499051571,0.04454795643687248,-0.008874045684933662,6.23904275894165,4.513333797454834,24.60852813720703,-16.840120315551758,17.68314552307129,48415.0,51705.0,56768.0,43589.0,-0.3000025448675481,0.51961377298239,0.5,-0.40620166063308716,-0.5068336725234985,0.007953121326863766,-0.005470756441354752,0.015934886410832405,0.02436908893287182,0.5574348568916321,0.2715943455696106,2.2924840450286865,-23.28258514404297,-12.512186050415039,-8.943999290466309,49725.0,50676.0,54914.0,52405.0,-0.29999491024331576,-0.5196181808098181,0.5
0.716,TAKEOFF,abrupt,1.0,0.5964238047599792,0.016618559136986732,0.0024578054435551167,-0.06405067443847656,-0.008471660315990448,0.03669346496462822,1.0199863910675049,-0.24676978588104248,2.980985164642334,-11.720805168151855,47.58362579345703,10.036831855773926,52853.0,45206.0,50379.0,51522.0,0.6,0.0,0.5,-0.451603502035141,0.6337482929229736,0.01038882602006197,-0.0971202701330185,-0.0031172882299870253,0.045007552951574326,0.703144371509552,6.694177150726318,4.956058979034424,2.783162832260132,-23.159591674804688,18.620773315429688,48256.0,54160.0,58212.0,41854.0,-0.3000025448675481,0.51961377298239,0.5,-0.40620166063308716,-0.5068336725234985,0.007953121326863766,-0.0010444347281008959,0.01936291716992855,0.0575953833758831,-0.4045543372631073,0.7918713092803955,1.7570456266403198,16.45722198486328,-11.422589302062988,-4.2701640129089355,50949.0,54392.0,53577.0,51313.0,-0.29999491024331576,-0.5196181808098181,0.5
0.735,TAKEOFF,abrupt,1.0,0.5964238047599792,0.016618559136986732,0.0024578054435551167,-0.06405067443847656,-0.008471660315990448,0.03669346496462822,1.0199863910675049,-0.24676978588104248,2.980985164642334,-11.720805168151855,47.58362579345703,10.036831855773926,52853.0,45206.0,50379.0,51522.0,0.6,0.0,0.5,-0.451603502035141,0.6337482929229736,0.01038882602006197,-0.0971202701330185,-0.0031172882299870253,0.045007552951574326,0.703144371509552,6.694177150726318,4.956058979034424,2.783162832260132,-23.159591674804688,18.620773315429688,48256.0,54160.0,58212.0,41854.0,-0.3000025448675481,0.51961377298239,0.5,-0.40620166063308716,-0.5068336725234985,0.007953121326863766,-0.0010444347281008959,0.01936291716992855,0.0575953833758831,-0.4045543372631073,0.7918713092803955,1.7570456266403198,16.45722198486328,-11.422589302062988,-4.2701640129089355,50949.0,54392.0,53577.0,51313.0,-0.29999491024331576,-0.5196181808098181,0.5
0.756,TAKEOFF,abrupt,1.0,0.5964238047599792,0.016618559136986732,0.0024578054435551167,-0.06259216368198395,-0.008466662839055061,0.06852792203426361,0.8438388109207153,-1.1316279172897339,3.235264778137207,-11.555797576904297,32.76568603515625,10.079303741455078,51111.0,47145.0,52724.0,49537.0,0.6,0.0,0.5,-0.451603502035141,0.6337482929229736,0.01038882602006197,-0.0971202701330185,-0.0031172882299870253,0.045007552951574326,0.7768541574478149,7.142874717712402,5.301704406738281,-5.796069622039795,3.7871334552764893,19.077926635742188,49609.0,53469.0,58357.0,43379.0,-0.3000025448675481,0.51961377298239,0.5,-0.40620166063308716,-0.5068336725234985,0.007953121326863766,0.01537554245442152,0.01076838281005621,0.06484603881835938,-0.4045543372631073,0.7918713092803955,1.7570456266403198,16.45722198486328,-11.422589302062988,-4.2701640129089355,54478.0,54493.0,51748.0,49144.0,-0.29999491024331576,-0.5196181808098181,0.5
0.776,TAKEOFF,abrupt,1.0,0.5936926007270813,0.01441860105842352,0.009554190561175346,-0.03834320604801178,-0.016694674268364906,0.07648834586143494,0.582076907157898,-1.674756646156311,3.403351068496704,-24.282121658325195,13.997501373291016,8.092793464660645,50997.0,46470.0,53067.0,50563.0,0.6,0.0,0.5,-0.451603502035141,0.6337482929229736,0.01038882602006197,-0.1220220997929573,-0.008928230032324791,0.05620235204696655,0.6539945006370544,7.046672821044922,5.662905693054199,-14.454877853393555,29.601314544677734,16.777610778808594,51563.0,51261.0,57199.0,47004.0,-0.3000025448675481,0.51961377298239,0.5,-0.40620166063308716,-0.5068336725234985,0.007953121326863766,0.012092015706002712,0.009591961279511452,0.07761725783348083,0.10364645719528198,0.8750979900360107,1.6627953052520752,34.981319427490234,-6.508865833282471,0.01917036809027195,54302.0,55017.0,53013.0,48552.0,-0.29999491024331576,-0.5196181808098181,0.5
0.795,TAKEOFF,abrupt,1.0,0.5936926007270813,0.01441860105842352,0.009554190561175346,-0.03511027619242668,-0.022266851738095284,0.08881179988384247,0.2605041563510895,-2.0349926948547363,3.4032797813415527,4.240695953369141,4.8686747550964355,2.492482900619507,53130.0,51083.0,49591.0,48216.0,0.6,0.0,0.5,-0.4626976251602173,0.6326691508293152,0.01588296703994274,-0.17015351355075836,-0.015986161306500435,0.07549893856048584,0.3732376992702484,6.441242694854736,5.980011463165283,0.2781848609447479,39.80827331542969,14.063774108886719,52859.0,49835.0,56790.0,48963.0,-0.3000025448675481,0.51961377298239,0.5,-0.4002731740474701,-0.5071063041687012,0.01605314388871193,0.012092015706002712,0.009591961279511452,0.07761725783348083,0.7735880613327026,1.0430556535720825,1.6757895946502686,24.333261489868164,-9.60460376739502,3.5688629150390625,53366.0,53991.0,54747.0,49590.0,-0.29999491024331576,-0.5196181808098181,0.5
0.815,TAKEOFF,abrupt,1.0,0.5936926007270813,0.01441860105842352,0.009554190561175346,-0.027184322476387024,-0.022813117131590843,0.10495427250862122,0.3300374448299408,-2.1486563682556152,3.4639530181884766,14.807345390319824,-6.968731880187988,5.994990348815918,52431.0,50938.0,52046.0,46859.0,0.6,0.0,0.5,-0.4626976251602173,0.6326691508293152,0.01588296703994274,-0.19069980084896088,-0.01942889578640461,0.08426002413034439,0.32021015882492065,5.609879016876221,6.284163951873779,-0.5253155827522278,35.02131271362305,17.054502487182617,52471.0,51572.0,56816.0,46715.0,-0.3000025448675481,0.51961377298239,0.5,-0.4002731740474701,-0.5071063041687012,0.01605314388871193,-0.0012467108899727464,0.01502335537225008,0.12445349246263504,1.0393730401992798,1.2814383506774902,1.7822425365447998,-20.19282341003418,-4.7689080238342285,2.9506616592407227,52802.0,51454.0,55629.0,52335.0,-0.29999491024331576,-0.5196181808098181,0.5
0.835,TAKEOFF,abrupt,1.0,0.5936926007270813,0.01441860105842352,0.009554190561175346,-0.009700505062937737,-0.02442697249352932,0.11648408323526382,0.631941556930542,-2.0014007091522217,3.5776050090789795,20.618267059326172,0.7430198192596436,6.958995819091797,54350.0,50379.0,50317.0,47499.0,0.6,0.0,0.5,-0.4626976251602173,0.6326691508293152,0.01588296703994274,-0.20863565802574158,-0.02258373238146305,0.0946352481842041,0.27029529213905334,4.864177703857422,6.620476722717285,8.91092300415039,39.16873550415039,17.06186866760254,52055.0,51287.0,58234.0,47393.0,-0.3000025448675481,0.51961377298239,0.5,-0.4002731740474701,-0.5071063041687012,0.01605314388871193,-0.006043618079274893,0.012330949306488037,0.141773521900177,0.7233610153198242,1.3552404642105103,1.8448528051376343,-6.365774154663086,8.45637035369873,1.778643250465393,54870.0,51170.0,53243.0,52760.0,-0.29999491024331576,-0.5196181808098181,0.5
0.856,TAKEOFF,abrupt,1.0,0.5936926007270813,0.01441860105842352,0.009554190561175346,8.255428110715002e-05,-0.006794555578380823,0.14089049398899078,0.8762351274490356,-2.0385217666625977,3.687621593475342,15.05343246459961,3.589447021484375,5.875777244567871,53815.0,49732.0,50952.0,48278.0,0.6,0.0,0.5,-0.4626976251602173,0.6326691508293152,0.01588296703994274,-0.21578936278820038,-0.022332962602376938,0.0931820198893547,0.34669968485832214,4.029496669769287,6.978713512420654,-3.4429931640625,38.606292724609375,18.327136993408203,52658.0,51745.0,58173.0,46966.0,-0.3000025448675481,0.51961377298239,0.5,-0.4002731740474701,-0.5071063041687012,0.01605314388871193,0.019111601635813713,0.003512653289362788,0.1560995876789093,0.5971842408180237,1.112464189529419,1.9126919507980347,-1.066706657409668,22.6391544342041,6.10023307800293,55185.0,51179.0,53166.0,52363.0,-0.29999491024331576,-0.5196181808098181,0.5
0.876,TAKEOFF,abrupt,1.0,0.5878838896751404,0.014788936823606491,0.024149958044290543,8.255428110715002e-05,-0.006794555578380823,0.14089049398899078,1.1708385944366455,-2.15476131439209,3.756772041320801,3.072787046432495,-1.9968507289886475,5.958977222442627,52281.0,50031.0,52708.0,48113.0,0.6,0.0,0.5,-0.4626976251602173,0.6326691508293152,0.01588296703994274,-0.21578936278820038,-0.022332962602376938,0.0931820198893547,0.13476312160491943,3.3199031352996826,7.366028308868408,-6.190971851348877,37.150657653808594,15.9425687789917,53469.0,51111.0,58394.0,48107.0,-0.3000025448675481,0.51961377298239,0.5,-0.39559122920036316,-0.5048871636390686,0.030750196427106857,0.017914503812789917,0.0009052198729477823,0.1751486212015152,0.6588789224624634,0.4565909206867218,2.0968661308288574,4.082320213317871,19.163049697875977,7.341121196746826,55416.0,50082.0,53499.0,53505.0,-0.29999491024331576,-0.5196181808098181,0.5
0.895,TAKEOFF,abrupt,1.0,0.5878838896751404,0.014788936823606491,0.024149958044290543,-0.011403268203139305,-0.02194002829492092,0.17671582102775574,1.2338652610778809,-1.8815646171569824,3.9161033630371094,-10.326934814453125,-10.910380363464355,8.516094207763672,51260.0,48282.0,53829.0,49603.0,0.6,0.0,0.5,-0.48525482416152954,0.6352301239967346,0.0275656059384346,-0.24481220543384552,-0.0074449810199439526,0.1271631419658661,0.07513049244880676,2.4361541271209717,7.702685832977295,-8.829708099365234,32.129520416259766,17.973777770996094,51647.0,51513.0,59585.0,47206.0,-0.3000025448675481,0.51961377298239,0.5,-0.39559122920036316,-0.5048871636390686,0.030750196427106857,0.017914503812789917,0.0009052198729477823,0.1751486212015152,0.7093100547790527,0.04957565292716026,2.234692096710205,1.4895037412643433,20.807353973388672,7.032981872558594,55929.0,49302.0,53243.0,53928.0,-0.29999491024331576,-0.5196181808098181,0.5
0.916,TAKEOFF,abrupt,1.0,0.5878838896751404,0.014788936823606491,0.024149958044290543,0.012055736035108566,-0.026903867721557617,0.1915452480316162,0.9197211861610413,-1.5836076736450195,4.1204400062561035,-31.501140594482422,-21.516185760498047,9.150593757629395,50613.0,48276.0,54802.0,49184.0,0.6,0.0,0.5,-0.48525482416152954,0.6352301239967346,0.0275656059384346,-0.2557719051837921,-0.002660403959453106,0.1558428555727005,-0.21276600658893585,1.8046457767486572,8.06201171875,-0.20623083412647247,45.341026306152344,16.49555015563965,52722.0,51403.0,59506.0,47596.0,-0.3000025448675481,0.51961377298239,0.5,-0.39559122920036316,-0.5048871636390686,0.030750196427106857,0.01829766482114792,-0.0017160577699542046,0.18886181712150574,0.7025486826896667,-0.41937553882598877,2.3864402770996094,-5.393442630767822,27.57040023803711,7.061503887176514,55741.0,48894.0,53554.0,54332.0,-0.29999491024331576,-0.5196181808098181,0.5
0.935,TAKEOFF,abrupt,1.0,0.5878838896751404,0.014788936823606491,0.024149958044290543,0.004345218650996685,-0.034167543053627014,0.20901398360729218,0.3448440432548523,-1.174204707145691,4.248504638671875,-32.84733581542969,-21.931013107299805,12.285523414611816,50095.0,49161.0,55676.0,47955.0,0.6,0.0,0.5,-0.48525482416152954,0.6352301239967346,0.0275656059384346,-0.25990909337997437,-0.0024340420495718718,0.1675715297460556,-0.2107013314962387,0.8919757008552551,8.380868911743164,9.900603294372559,56.88243865966797,15.46638298034668,54300.0,50831.0,57942.0,47280.0,-0.3000025448675481,0.51961377298239,0.5,-0.39559122920036316,-0.5048871636390686,0.030750196427106857,0.018488770350813866,0.003227044828236103,0.21575911343097687,0.502415120601654,-0.8940646052360535,2.496351718902588,-15.480138778686523,12.949302673339844,5.464718818664551,54228.0,50603.0,55225.0,53215.0,-0.29999491024331576,-0.5196181808098181,0.5
0.956,TAKEOFF,abrupt,1.0,0.5878838896751404,0.014788936823606491,0.024149958044290543,0.02389465644955635,-0.03921525552868843,0.21806858479976654,-0.27785998582839966,-0.7306208610534668,4.488691329956055,-23.325040817260742,-20.176868438720703,11.911547660827637,51465.0,47711.0,54726.0,49347.0,0.6,0.0,0.5,-0.48525482416152954,0.6352301239967346,0.0275656059384346,-0.25990909337997437,-0.0024340420495718718,0.1675715297460556,-0.09823176264762878,-0.19613070785999298,8.68789291381836,17.37639808654785,50.03746032714844,15.550445556640625,54032.0,51139.0,58765.0,47436.0,-0.3000025448675481,0.51961377298239,0.5,-0.39559122920036316,-0.5048871636390686,0.030750196427106857,0.024992486461997032,0.00513033801689744,0.23450273275375366,0.19238895177841187,-1.096502661705017,2.606916666030884,-17.24555015563965,3.1120288372039795,5.359755992889404,54700.0,50614.0,54876.0,53066.0,-0.29999491024331576,-0.5196181808098181,0.5
0.976,TAKEOFF,abrupt,1.0,0.5902377367019653,0.010146616026759148,0.04697420820593834,0.010361243970692158,-0.029326241463422775,0.23378537595272064,-0.6745530962944031,-0.36188945174217224,4.741694927215576,-4.882826328277588,-18.605106353759766,10.199689865112305,52156.0,51241.0,54173.0,45574.0,0.6,0.0,0.5,-0.48525482416152954,0.6352301239967346,0.0275656059384346,-0.26029810309410095,0.012337669730186462,0.19954723119735718,0.21525190770626068,-1.1903886795043945,8.993685722351074,23.663970947265625,42.355648040771484,15.01998233795166,54551.0,52327.0,58410.0,45561.0,-0.3000025448675481,0.51961377298239,0.5,-0.391716331243515,-0.5036399960517883,0.05307333171367645,0.0317816287279129,0.004609924741089344,0.23887857794761658,-0.1445755660533905,-1.183008074760437,2.720738410949707,-13.148395538330078,-1.1361808776855469,6.122532367706299,54572.0,51930.0,55293.0,51742.0,-0.29999491024331576,-0.5196181808098181,0.5
0.995,TAKEOFF,abrupt,1.0,0.5902377367019653,0.010146616026759148,0.04697420820593834,0.008104669861495495,-0.02711968496441841,0.24538376927375793,-0.6296873688697815,0.038609303534030914,4.935502529144287,19.66288185119629,-21.097976684570312,9.481925010681152,53186.0,51910.0,53353.0,44777.0,0.6,0.0,0.5,-0.5129027366638184,0.6374890804290771,0.050445035099983215,-0.2537066340446472,0.011447886936366558,0.20345090329647064,0.6764650940895081,-2.019322156906128,9.293346405029297,11.543130874633789,35.7393798828125,12.511224746704102,54934.0,52430.0,58259.0,45455.0,-0.3000025448675481,0.51961377298239,0.5,-0.391716331243515,-0.5036399960517883,0.05307333171367645,0.0317816287279129,0.004609924741089344,0.23887857794761658,-0.32386282086372375,-1.1066608428955078,2.8309226036071777,5.104330062866211,-14.001070022583008,7.7118916511535645,56372.0,52786.0,53784.0,50833.0,-0.29999491024331576,-0.5196181808098181,0.5
1.016,TAKEOFF,abrupt,1.0,0.5902377367019653,0.010146616026759148,0.04697420820593834,0.005644046235829592,-0.020378470420837402,0.2602013349533081,-0.2544132471084595,0.4588480293750763,5.112027645111084,15.643499374389648,-13.404572486877441,7.6259074211120605,52723.0,50670.0,53923.0,46571.0,0.6,0.0,0.5,-0.5129027366638184,0.6374890804290771,0.050445035099983215,-0.23837018013000488,0.007391428109258413,0.20838382840156555,0.9904593229293823,-3.1346375942230225,9.709792137145996,-1.2117910385131836,33.646705627441406,10.890954971313477,53545.0,51067.0,59653.0,47665.0,-0.3000025448675481,0.51961377298239,0.5,-0.391716331243515,-0.5036399960517883,0.05307333171367645,0.050979770720005035,0.0015568746021017432,0.2640078067779541,-0.1550903618335724,-0.8340614438056946,2.96945858001709,20.70003318786621,-26.76201820373535,7.868529796600342,55221.0,53924.0,55247.0,49638.0,-0.29999491024331576,-0.5196181808098181,0.5
1.036,TAKEOFF,abrupt,1.0,0.5902377367019653,0.010146616026759148,0.04697420820593834,0.003950455691665411,-0.021705511957406998,0.26329123973846436,-0.03369046375155449,0.6910291910171509,5.304065227508545,5.134047031402588,3.819122314453125,7.264094829559326,53672.0,50229.0,53189.0,47230.0,0.6,0.0,0.5,-0.5129027366638184,0.6374890804290771,0.050445035099983215,-0.22625946998596191,0.006016678176820278,0.21492354571819305,0.8629714250564575,-3.701827049255371,9.945318222045898,-12.966632843017578,24.681270599365234,9.490967750549316,52759.0,50155.0,60634.0,48852.0,-0.3000025448675481,0.51961377298239,0.5,-0.391716331243515,-0.5036399960517883,0.05307333171367645,0.05549241229891777,0.00031974780722521245,0.27027058601379395,0.6392733454704285,0.16429638862609863,3.364004611968994,13.087715148925781,-23.501306533813477,11.105551719665527,56109.0,53205.0,54967.0,50325.0,-0.29999491024331576,-0.5196181808098181,0.5
1.056,TAKEOFF,abrupt,1.0,0.5902377367019653,0.010146616026759148,0.04697420820593834,0.0020591472275555134,-0.020056825131177902,0.27639487385749817,0.006044101435691118,0.6042682528495789,5.468379020690918,-3.3002026081085205,4.733727931976318,5.969332218170166,52846.0,48440.0,54112.0,49180.0,0.6,0.0,0.5,-0.5129027366638184,0.6374890804290771,0.050445035099983215,-0.22625946998596191,0.006016678176820278,0.21492354571819305,0.5885059237480164,-4.178304195404053,10.146261215209961,-9.471190452575684,22.737668991088867,9.849078178405762,52630.0,49808.0,60924.0,49612.0,-0.3000025448675481,0.51961377298239,0.5,-0.391716331243515,-0.5036399960517883,0.05307333171367645,0.04807053133845329,0.004285376984626055,0.274789422750473,0.6392733454704285,0.16429638862609863,3.364004611968994,13.087715148925781,-23.501306533813477,11.105551719665527,56076.0,52063.0,55588.0,51528.0,-0.29999491024331576,-0.5196181808098181,0.5
1.076,TAKEOFF,abrupt,1.0,0.5912474989891052,0.009064512327313423,0.07553470879793167,0.0015543814515694976,-0.018375338986516,0.2909581959247589,-0.5108410120010376,0.3745848834514618,5.698124408721924,-14.00374984741211,0.27146270871162415,3.8021252155303955,52251.0,49395.0,54933.0,48620.0,0.6,0.0,0.5,-0.5129027366638184,0.6374890804290771,0.050445035099983215,-0.1800687462091446,0.007619041483849287,0.23818862438201904,0.554554283618927,-4.7823262214660645,10.404064178466797,9.88111400604248,20.1634578704834,2.9205050468444824,54248.0,52442.0,60158.0,47322.0,-0.3000025448675481,0.51961377298239,0.5,-0.3837234079837799,-0.5026240944862366,0.08009922504425049,0.0431564524769783,0.003613299923017621,0.28358006477355957,0.6838313937187195,0.8015232086181641,3.801062822341919,-10.767908096313477,-0.431803822517395,8.9518461227417,56130.0,50173.0,56040.0,53726.0,-0.29999491024331576,-0.5196181808098181,0.5
1.095,TAKEOFF,abrupt,1.0,0.5912474989891052,0.009064512327313423,0.07553470879793167,0.0015543814515694976,-0.018375338986516,0.2909581959247589,-0.5108410120010376,0.3745848834514618,5.698124408721924,-14.00374984741211,0.27146270871162415,3.8021252155303955,52251.0,49395.0,54933.0,48620.0,0.6,0.0,0.5,-0.5284830331802368,0.6361721754074097,0.0659789890050888,-0.1800687462091446,0.007619041483849287,0.23818862438201904,0.554554283618927,-4.7823262214660645,10.404064178466797,9.88111400604248,20.1634578704834,2.9205050468444824,54248.0,52442.0,60158.0,47322.0,-0.3000025448675481,0.51961377298239,0.5,-0.3837234079837799,-0.5026240944862366,0.08009922504425049,0.0431564524769783,0.003613299923017621,0.28358006477355957,0.6838313937187195,0.8015232086181641,3.801062822341919,-10.767908096313477,-0.431803822517395,8.9518461227417,56130.0,50173.0,56040.0,53726.0,-0.29999491024331576,-0.5196181808098181,0.5
1.115,TAKEOFF,abrupt,1.0,0.5912474989891052,0.009064512327313423,0.07553470879793167,0.035993169993162155,-0.027912765741348267,0.29284003376960754,-0.7835050225257874,0.42765846848487854,5.785826683044434,-9.916552543640137,-7.3628339767456055,5.658352851867676,51968.0,50951.0,54764.0,48012.0,0.6,0.0,0.5,-0.5284830331802368,0.6361721754074097,0.0659789890050888,-0.1800687462091446,0.007619041483849287,0.23818862438201904,0.926225483417511,-5.331863880157471,10.461262702941895,10.410137176513672,23.549697875976562,0.024448800832033157,55126.0,52715.0,59476.0,47670.0,-0.3000025448675481,0.51961377298239,0.5,-0.3837234079837799,-0.5026240944862366,0.08009922504425049,0.03911161050200462,-0.007145690266042948,0.2934471666812897,0.45565369725227356,0.8016945123672485,3.9832141399383545,-11.63602066040039,-0.16334450244903564,5.753568172454834,55954.0,51368.0,56178.0,53211.0,-0.29999491024331576,-0.5196181808098181,0.5
1.135,TAKEOFF,abrupt,1.0,0.5912474989891052,0.009064512327313423,0.07553470879793167,0.029033172875642776,-0.01266647782176733,0.30113914608955383,-0.8924543261528015,0.3164828419685364,5.887511730194092,-3.198046922683716,-2.4162323474884033,5.596513271331787,53459.0,49912.0,54467.0,48318.0,0.6,0.0,0.5,-0.5284830331802368,0.6361721754074097,0.0659789890050888,-0.12163939327001572,-0.008224165067076683,0.2125222086906433,1.1462883949279785,-5.804837703704834,10.457331657409668,18.315738677978516,19.855546951293945,-2.63741397857666,55261.0,53884.0,60240.0,48992.0,-0.3000025448675481,0.51961377298239,0.5,-0.3837234079837799,-0.5026240944862366,0.08009922504425049,0.03781221807003021,-0.007737814914435148,0.30231809616088867,0.2761687636375427,0.8055387735366821,4.066843509674072,-8.396904945373535,-3.668494462966919,2.832510232925415,56497.0,51582.0,56340.0,52716.0,-0.29999491024331576,-0.5196181808098181,0.5
1.156,TAKEOFF,abrupt,1.0,0.5912474989891052,0.009064512327313423,0.07553470879793167,0.04986019805073738,-0.013342640362679958,0.3065023720264435,-0.8733019232749939,0.3714469075202942,5.983503341674805,8.898999214172363,-5.731572151184082,3.6032018661499023,53282.0,51074.0,53559.0,48717.0,0.6,0.0,0.5,-0.5284830331802368,0.6361721754074097,0.0659789890050888,-0.09913202375173569,-0.010286166332662106,0.21331249177455902,1.4404261112213135,-6.230039119720459,10.400711059570312,19.36150550842285,9.241931915283203,-0.2651946544647217,55261.0,53884.0,60240.0,48992.0,-0.3000025448675481,0.51961377298239,0.5,-0.3837234079837799,-0.5026240944862366,0.08009922504425049,0.0344589501619339,-0.008386828005313873,0.30915626883506775,0.09253628551959991,1.1482712030410767,4.148708343505859,0.41300320625305176,-16.57451820373535,0.4012465178966522,56019.0,53435.0,56661.0,51538.0,-0.29999491024331576,-0.5196181808098181,0.5
1.175,TAKEOFF,abrupt,1.0,0.5999209880828857,0.0037990803830325603,0.10169951617717743,0.04839235916733742,-0.01114181149750948,0.31078484654426575,-0.6039916276931763,0.42257171869277954,5.992021560668945,12.18592643737793,-16.77837562561035,3.8826186656951904,54377.0,51406.0,53965.0,47097.0,0.6,0.0,0.5,-0.5284830331802368,0.6361721754074097,0.0659789890050888,-0.09913202375173569,-0.010286166332662106,0.21331249177455902,1.818712830543518,-6.460120677947998,10.350724220275879,13.902746200561523,5.19791841506958,-2.4334187507629395,56736.0,53210.0,59730.0,50016.0,-0.3000025448675481,0.51961377298239,0.5,-0.37801799178123474,-0.5055216550827026,0.11045666038990021,0.03304797038435936,-0.013958686031401157,0.307736873626709,0.15078453719615936,1.443292498588562,4.114405632019043,-1.7216695547103882,-11.118160247802734,0.6179122924804688,56358.0,53573.0,56266.0,51979.0,-0.29999491024331576,-0.5196181808098181,0.5
1.195,TAKEOFF,abrupt,1.0,0.5999209880828857,0.0037990803830325603,0.10169951617717743,0.024351080879569054,-0.032379452139139175,0.3092268109321594,-0.22228817641735077,0.9983006119728088,6.071306228637695,13.542491912841797,-12.469644546508789,3.9283065795898438,53429.0,52196.0,54223.0,47608.0,0.6,0.0,0.5,-0.5319257378578186,0.6293302178382874,0.08504471182823181,-0.06876815855503082,-0.018897725269198418,0.22414009273052216,2.250028133392334,-6.670950412750244,10.331689834594727,2.5999085903167725,-1.1465914249420166,-1.871669054031372,55977.0,54161.0,60646.0,49434.0,-0.3000025448675481,0.51961377298239,0.5,-0.37801799178123474,-0.5055216550827026,0.11045666038990021,0.033448267728090286,-0.015341912396252155,0.3212752640247345,0.15078453719615936,1.443292498588562,4.114405632019043,-1.7216695547103882,-11.118160247802734,0.6179122924804688,56361.0,52519.0,56395.0,53472.0,-0.29999491024331576,-0.5196181808098181,0.5
1.215,TAKEOFF,abrupt,1.0,0.5999209880828857,0.0037990803830325603,0.10169951617717743,0.01326517853885889,-0.034365639090538025,0.3222588002681732,0.07255520671606064,1.1989246606826782,6.083880424499512,7.6354804039001465,-10.243762016296387,4.072773456573486,53801.0,51985.0,54988.0,46775.0,0.6,0.0,0.5,-0.5319257378578186,0.6293302178382874,0.08504471182823181,-0.038679320365190506,-0.03111448884010315,0.2306280881166458,2.3078722953796387,-6.631805419921875,10.289576530456543,-9.684379577636719,-14.425695419311523,-2.1491034030914307,55705.0,54366.0,60986.0,49654.0,-0.3000025448675481,0.51961377298239,0.5,-0.37801799178123474,-0.5055216550827026,0.11045666038990021,0.027781281620264053,-0.01610608771443367,0.32813531160354614,0.12002834677696228,1.5808192491531372,4.125668048858643,-3.493929386138916,-5.259016513824463,-0.7207949161529541,56158.0,52278.0,56735.0,54016.0,-0.29999491024331576,-0.5196181808098181,0.5
1.236,TAKEOFF,abrupt,1.0,0.5999209880828857,0.0037990803830325603,0.10169951617717743,0.017735900357365608,-0.023954924196004868,0.32561546564102173,0.05953699350357056,1.426088571548462,6.199548244476318,-2.6280128955841064,-12.96437931060791,2.3539505004882812,52750.0,52079.0,55140.0,48192.0,0.6,0.0,0.5,-0.5319257378578186,0.6293302178382874,0.08504471182823181,0.012851132079958916,-0.039842959493398666,0.24148023128509521,2.111391305923462,-6.365267753601074,10.252900123596191,-21.913869857788086,-24.08948516845703,-1.9525882005691528,54749.0,53436.0,62107.0,50992.0,-0.3000025448675481,0.51961377298239,0.5,-0.37801799178123474,-0.5055216550827026,0.11045666038990021,0.026909593492746353,-0.016988636925816536,0.34015893936157227,0.023259660229086876,1.6531320810317993,4.108038425445557,-3.5442163944244385,-2.019357681274414,-2.4108059406280518,56425.0,51833.0,56417.0,54684.0,-0.29999491024331576,-0.5196181808098181,0.5
1.256,TAKEOFF,abrupt,1.0,0.5999209880828857,0.0037990803830325603,0.10169951617717743,0.012653031386435032,-0.02460082434117794,0.3319171667098999,0.003703109221532941,1.4775795936584473,6.187656879425049,-6.837105751037598,0.9729873538017273,2.4049484729766846,53918.0,50879.0,55370.0,48536.0,0.6,0.0,0.5,-0.5319257378578186,0.6293302178382874,0.08504471182823181,0.012851132079958916,-0.039842959493398666,0.24148023128509521,1.698160171508789,-5.8700761795043945,10.175089836120605,-24.26616096496582,-28.304100036621094,-2.6604514122009277,54890.0,55038.0,62243.0,49561.0,-0.3000025448675481,0.51961377298239,0.5,-0.37801799178123474,-0.5055216550827026,0.11045666038990021,0.03705593943595886,-0.024593621492385864,0.34385764598846436,-0.11224153637886047,1.410098910331726,4.017449855804443,-3.4950201511383057,2.3255155086517334,-2.0506491661071777,56396.0,53591.0,56203.0,53513.0,-0.29999491024331576,-0.5196181808098181,0.5
1.275,TAKEOFF,abrupt,1.0,0.5997913479804993,0.0025067904498428106,0.13532912731170654,-0.016031986102461815,-0.017581501975655556,0.3434731662273407,-0.26837360858917236,1.6179207563400269,6.288547515869141,-10.679329872131348,6.419377326965332,2.681169271469116,52693.0,50732.0,56308.0,48400.0,0.6,0.0,0.5,-0.5319257378578186,0.6293302178382874,0.08504471182823181,0.03481699526309967,-0.042806532233953476,0.2580081522464752,1.2131794691085815,-5.2842607498168945,10.127013206481934,-20.03119659423828,-27.678165435791016,-4.748060703277588,54370.0,54784.0,62308.0,50067.0,-0.3000025448675481,0.51961377298239,0.5,-0.36617690324783325,-0.5125923156738281,0.14417007565498352,0.032009877264499664,-0.0244789756834507,0.3543426990509033,-0.11224153637886047,1.410098910331726,4.017449855804443,-3.4950201511383057,2.3255155086517334,-2.0506491661071777,57324.0,52531.0,55601.0,54259.0,-0.29999491024331576,-0.5196181808098181,0.5
1.295,TAKEOFF,abrupt,1.0,0.5997913479804993,0.0025067904498428106,0.13532912731170654,-0.011101463809609413,-0.02201922796666622,0.34939172863960266,-0.435700386762619,1.4285720586776733,6.2904887199401855,-7.108099937438965,11.468500137329102,2.047044038772583,53484.0,50171.0,54627.0,49829.0,0.6,0.0,0.5,-0.5320448279380798,0.6282830834388733,0.11121635884046555,0.07179971784353256,-0.03977677598595619,0.28191083669662476,0.7738233804702759,-4.790477752685547,10.064444541931152,-13.803203582763672,-17.74366569519043,-4.004955768585205,55001.0,53854.0,61780.0,50882.0,-0.3000025448675481,0.51961377298239,0.5,-0.36617690324783325,-0.5125923156738281,0.14417007565498352,0.032009877264499664,-0.0244789756834507,0.3543426990509033,-0.16204147040843964,1.3590147495269775,3.9655768871307373,-0.398596853017807,-0.7510818243026733,-3.36391282081604,56696.0,52908.0,55957.0,53683.0,-0.29999491024331576,-0.5196181808098181,0.5
1.315,TAKEOFF,abrupt,1.0,0.5997913479804993,0.0025067904498428106,0.13532912731170654,-0.014822391793131828,-0.02290705032646656,0.3557800352573395,-0.5120000839233398,1.1875120401382446,6.272074222564697,-0.4380624294281006,10.191983222961426,2.0112226009368896,53445.0,50853.0,54488.0,48554.0,0.6,0.0,0.5,-0.5320448279380798,0.6282830834388733,0.11121635884046555,0.07179971784353256,-0.03977677598595619,0.28191083669662476,0.44880354404449463,-4.361063003540039,10.017816543579102,-7.584993839263916,-11.147695541381836,-4.3155341148376465,55463.0,54821.0,61239.0,49638.0,-0.3000025448675481,0.51961377298239,0.5,-0.36617690324783325,-0.5125923156738281,0.14417007565498352,0.03458487242460251,-0.03141888603568077,0.37334439158439636,-0.1153341680765152,1.2893251180648804,3.9070916175842285,-2.49186110496521,-4.1914448738098145,-2.424511432647705,56536.0,53131.0,55984.0,53051.0,-0.29999491024331576,-0.5196181808098181,0.5
1.335,TAKEOFF,abrupt,1.0,0.5997913479804993,0.0025067904498428106,0.13532912731170654,-0.013588275760412216,-0.019439898431301117,0.3557955026626587,-0.4998331069946289,0.9090139269828796,6.2706451416015625,3.7310078144073486,11.598538398742676,3.085458993911743,54388.0,50843.0,53444.0,48560.0,0.6,0.0,0.5,-0.5320448279380798,0.6282830834388733,0.11121635884046555,0.07829125970602036,-0.02757319249212742,0.31058186292648315,0.2329401671886444,-4.073081970214844,9.952520370483398,-2.824697256088257,-12.241312026977539,-3.351895809173584,55707.0,53948.0,60815.0,49471.0,-0.3000025448675481,0.51961377298239,0.5,-0.36617690324783325,-0.5125923156738281,0.14417007565498352,0.033352144062519073,-0.03128864988684654,0.39242100715637207,-0.15679363906383514,1.3787683248519897,3.8634629249572754,-5.875381946563721,-4.79591703414917,-3.1408956050872803,56074.0,53105.0,55978.0,52826.0,-0.29999491024331576,-0.5196181808098181,0.5
1.355,TAKEOFF,abrupt,1.0,0.5997913479804993,0.0025067904498428106,0.13532912731170654,-0.01998746208846569,-0.02024592086672783,0.3612667918205261,-0.4125635623931885,0.7533655166625977,6.324963569641113,7.859485149383545,2.7557060718536377,2.9623403549194336,53591.0,51929.0,54182.0,46705.0,0.6,0.0,0.5,-0.5320448279380798,0.6282830834388733,0.11121635884046555,0.10779330134391785,-0.024214275181293488,0.3415645658969879,0.20725497603416443,-3.8253262042999268,9.8716402053833,2.88912034034729,-8.66612434387207,-5.718389511108398,55181.0,54245.0,60738.0,48986.0,-0.3000025448675481,0.51961377298239,0.5,-0.36617690324783325,-0.5125923156738281,0.14417007565498352,0.02411055378615856,-0.028651416301727295,0.4123061001300812,-0.4127000570297241,1.669644832611084,3.6899633407592773,-5.919771194458008,-10.851744651794434,-2.5934805870056152,55657.0,52395.0,55731.0,52925.0,-0.29999491024331576,-0.5196181808098181,0.5
1.376,TAKEOFF,abrupt,1.0,0.5957415103912354,-0.00010019335604738444,0.17568174004554749,-0.022343989461660385,-0.019440721720457077,0.365972101688385,-0.2710700035095215,0.6160271763801575,6.342824459075928,4.234057903289795,12.047621726989746,3.016059160232544,53262.0,51506.0,55127.0,46282.0,0.6,0.0,0.5,-0.5320448279380798,0.6282830834388733,0.11121635884046555,0.12131898105144501,-0.022762611508369446,0.35664108395576477,0.24769335985183716,-3.6430070400238037,9.755908012390137,5.889861106872559,-4.381030559539795,-7.7185139656066895,55468.0,53866.0,60000.0,49349.0,-0.3000025448675481,0.51961377298239,0.5,-0.36976397037506104,-0.51060950756073,0.18473711609840393,-0.005062511656433344,-0.010900279507040977,0.4087899923324585,-0.4127000570297241,1.669644832611084,3.6899633407592773,-5.919771194458008,-10.851744651794434,-2.5934805870056152,54094.0,52746.0,55863.0,53319.0,-0.29999491024331576,-0.5196181808098181,0.5
1.395,TAKEOFF,abrupt,1.0,0.5957415103912354,-0.00010019335604738444,0.17568174004554749,-0.037716276943683624,-0.016201142221689224,0.3821985125541687,-0.22141499817371368,0.5836832523345947,6.393044948577881,3.109434127807617,3.718214988708496,2.181097984313965,52769.0,50015.0,55092.0,47412.0,0.6,0.0,0.5,-0.5163085460662842,0.6245538592338562,0.14641214907169342,0.15871791541576385,-0.035516634583473206,0.34719765186309814,0.5017586946487427,-3.6121065616607666,9.533836364746094,1.680711030960083,-7.63416051864624,-7.038185119628906,54634.0,54234.0,60282.0,48457.0,-0.3000025448675481,0.51961377298239,0.5,-0.36976397037506104,-0.51060950756073,0.18473711609840393,-0.005062511656433344,-0.010900279507040977,0.4087899923324585,-0.6744163632392883,2.043950080871582,3.624448537826538,-6.4016242027282715,-7.9175262451171875,-2.879896640777588,53838.0,53317.0,56148.0,51805.0,-0.29999491024331576,-0.5196181808098181,0.5
1.416,TAKEOFF,abrupt,1.0,0.5957415103912354,-0.00010019335604738444,0.17568174004554749,-0.030908312648534775,-0.013865284621715546,0.38446342945098877,-0.25729528069496155,0.5447402596473694,6.424292087554932,-1.2233648300170898,1.6940388679504395,0.3395799994468689,52341.0,50659.0,54344.0,47242.0,0.6,0.0,0.5,-0.5163085460662842,0.6245538592338562,0.14641214907169342,0.15871791541576385,-0.035516634583473206,0.34719765186309814,0.5204614400863647,-3.433467388153076,9.40931224822998,-1.7174913883209229,-14.02880859375,-6.100757122039795,55983.0,52746.0,59259.0,50484.0,-0.3000025448675481,0.51961377298239,0.5,-0.36976397037506104,-0.51060950756073,0.18473711609840393,-0.019270146265625954,-0.006982513703405857,0.41995003819465637,-0.7954801321029663,2.202317714691162,3.56337308883667,-4.2718329429626465,-2.4677436351776123,-3.933893918991089,53900.0,53116.0,54908.0,52509.0,-0.29999491024331576,-0.5196181808098181,0.5
1.436,TAKEOFF,abrupt,1.0,0.5957415103912354,-0.00010019335604738444,0.17568174004554749,-0.03656706213951111,-0.0101072508841753,0.3892977833747864,-0.39817866683006287,0.31926000118255615,6.380497455596924,-4.201208114624023,6.58816385269165,0.9364930987358093,52765.0,50360.0,54519.0,46228.0,0.6,0.0,0.5,-0.5163085460662842,0.6245538592338562,0.14641214907169342,0.16722311079502106,-0.016796965152025223,0.39705780148506165,0.10594020038843155,-2.319547176361084,9.215719223022461,-9.522185325622559,-25.33030128479004,-5.925923824310303,52829.0,53228.0,60964.0,48315.0,-0.3000025448675481,0.51961377298239,0.5,-0.36976397037506104,-0.51060950756073,0.18473711609840393,-0.030954716727137566,-0.002270943019539118,0.42542386054992676,-0.7914285063743591,2.1785240173339844,3.391169309616089,3.7147932052612305,9.425430297851562,-3.0788772106170654,54460.0,52618.0,53496.0,52331.0,-0.29999491024331576,-0.5196181808098181,0.5
1.456,TAKEOFF,abrupt,1.0,0.5957415103912354,-0.00010019335604738444,0.17568174004554749,-0.04109718278050423,-0.004675616510212421,0.39481183886528015,-0.5496370792388916,0.23139089345932007,6.3895487785339355,-3.9931411743164062,6.587948322296143,0.8404771089553833,52590.0,49017.0,54409.0,47187.0,0.6,0.0,0.5,-0.5163085460662842,0.6245538592338562,0.14641214907169342,0.16722311079502106,-0.016796965152025223,0.39705780148506165,0.03148919716477394,-2.0648629665374756,9.134963989257812,-5.141764163970947,-26.5389404296875,-7.824575901031494,53245.0,53854.0,60181.0,47223.0,-0.3000025448675481,0.51961377298239,0.5,-0.36976397037506104,-0.51060950756073,0.18473711609840393,0.0006569159450009465,-0.01581461727619171,0.4345507025718689,-0.6972817182540894,1.9549509286880493,3.2908434867858887,7.504063606262207,13.021321296691895,-2.1795871257781982,54568.0,51340.0,53842.0,52562.0,-0.29999491024331576,-0.5196181808098181,0.5
1.476,TAKEOFF,abrupt,1.0,0.5929384231567383,0.0008335419115610421,0.21155543625354767,-0.04109718278050423,-0.004675616510212421,0.39481183886528015,-0.5496370792388916,0.23139089345932007,6.3895487785339355,-3.9931411743164062,6.587948322296143,0.8404771089553833,52590.0,49017.0,54409.0,47187.0,0.6,0.0,0.5,-0.5163085460662842,0.6245538592338562,0.14641214907169342,0.16722311079502106,-0.016796965152025223,0.39705780148506165,0.03148919716477394,-2.0648629665374756,9.134963989257812,-5.141764163970947,-26.5389404296875,-7.824575901031494,53245.0,53854.0,60181.0,47223.0,-0.3000025448675481,0.51961377298239,0.5,-0.36499470472335815,-0.5149567127227783,0.228851780295372,0.0006569159450009465,-0.01581461727619171,0.4345507025718689,-0.6972817182540894,1.9549509286880493,3.2908434867858887,7.504063606262207,13.021321296691895,-2.1795871257781982,54568.0,51340.0,53842.0,52562.0,-0.29999491024331576,-0.5196181808098181,0.5
1.495,TAKEOFF,abrupt,1.0,0.5929384231567383,0.0008335419115610421,0.21155543625354767,-0.0417209193110466,0.0005732314311899245,0.3989858627319336,-0.6354181170463562,0.061278071254491806,6.404898643493652,-3.061115026473999,9.598824501037598,-0.24175991117954254,52446.0,49380.0,54217.0,46555.0,0.6,0.0,0.5,-0.5073632597923279,0.628142774105072,0.18459147214889526,0.16924510896205902,-0.00032124220160767436,0.4181917607784271,-0.19798380136489868,-1.4879841804504395,9.023931503295898,2.329545021057129,-16.686851501464844,-8.845600128173828,53242.0,52877.0,59707.0,48047.0,-0.3000025448675481,0.51961377298239,0.5,-0.36499470472335815,-0.5149567127227783,0.228851780295372,0.0006569159450009465,-0.01581461727619171,0.4345507025718689,-0.44366195797920227,1.4096417427062988,3.2358102798461914,6.6838579177856445,11.959489822387695,-2.571401357650757,55030.0,51228.0,52547.0,52211.0,-0.29999491024331576,-0.5196181808098181,0.5
1.516,TAKEOFF,abrupt,1.0,0.5929384231567383,0.0008335419115610421,0.21155543625354767,-0.04175692796707153,0.0028015999123454094,0.3984905779361725,-0.6441193222999573,-0.09490609914064407,6.398603916168213,1.8363655805587769,5.427602291107178,-0.3844667971134186,52954.0,49738.0,53544.0,45893.0,0.6,0.0,0.5,-0.5073632597923279,0.628142774105072,0.18459147214889526,0.17146912217140198,0.005025825928896666,0.43000853061676025,-0.21356993913650513,-1.1698285341262817,8.869832992553711,10.204607009887695,-7.843764781951904,-9.208230972290039,54308.0,52373.0,58231.0,48632.0,-0.3000025448675481,0.51961377298239,0.5,-0.36499470472335815,-0.5149567127227783,0.228851780295372,0.000887354661244899,-0.013769170269370079,0.43421995639801025,-0.3370584547519684,1.1844596862792969,3.1643826961517334,3.3959193229675293,9.66420841217041,-2.740236520767212,53894.0,50279.0,53162.0,52773.0,-0.29999491024331576,-0.5196181808098181,0.5
1.535,TAKEOFF,abrupt,1.0,0.5929384231567383,0.0008335419115610421,0.21155543625354767,-0.04548604041337967,0.017288168892264366,0.4013737142086029,-0.6411689519882202,-0.24073438346385956,6.445578098297119,6.0235514640808105,6.640449523925781,-0.22549723088741302,52735.0,48795.0,53476.0,46620.0,0.6,0.0,0.5,-0.5073632597923279,0.628142774105072,0.18459147214889526,0.19283635914325714,-0.011362597346305847,0.42198169231414795,0.17643600702285767,-1.1331775188446045,8.65903377532959,20.111305236816406,-2.2546956539154053,-9.784035682678223,54753.0,53249.0,57417.0,46927.0,-0.3000025448675481,0.51961377298239,0.5,-0.36499470472335815,-0.5149567127227783,0.228851780295372,0.0016121602384373546,-0.012962216511368752,0.42184123396873474,-0.3001564145088196,0.945878803730011,3.0925111770629883,-3.9159858226776123,4.78783655166626,-2.7774391174316406,53675.0,52094.0,54168.0,49634.0,-0.29999491024331576,-0.5196181808098181,0.5
1.555,TAKEOFF,abrupt,1.0,0.5929384231567383,0.0008335419115610421,0.21155543625354767,-0.044526729732751846,0.01937936060130596,0.40054234862327576,-0.5644439458847046,-0.38954681158065796,6.425790309906006,8.166644096374512,7.970988750457764,-0.9100177884101868,52187.0,48721.0,53839.0,46393.0,0.6,0.0,0.5,-0.5073632597923279,0.628142774105072,0.18459147214889526,0.19321143627166748,-0.015935221686959267,0.42951878905296326,0.5916693806648254,-1.0717145204544067,8.407479286193848,21.63047981262207,0.7520475387573242,-10.637594223022461,54633.0,53562.0,57309.0,46796.0,-0.3000025448675481,0.51961377298239,0.5,-0.36499470472335815,-0.5149567127227783,0.228851780295372,0.00034362717997282743,-0.010434983298182487,0.409355491399765,-0.34820014238357544,0.918539822101593,3.0384016036987305,-6.191015720367432,-8.681323051452637,-2.6781599521636963,52906.0,50462.0,54858.0,51421.0,-0.29999491024331576,-0.5196181808098181,0.5
1.576,TAKEOFF,abrupt,1.0,0.5904210209846497,0.004269447177648544,0.2501033842563629,-0.021618254482746124,0.024926379323005676,0.38455942273139954,-0.3513646721839905,-0.8441835641860962,6.355240345001221,2.951831340789795,9.075823783874512,-2.7292799949645996,53014.0,48165.0,52772.0,47131.0,0.6,0.0,0.5,-0.5073632597923279,0.628142774105072,0.18459147214889526,0.1904420554637909,-0.013548595830798149,0.44127824902534485,1.22932767868042,-0.8713672757148743,7.962117671966553,-0.1895875334739685,-11.20084285736084,-10.594680786132812,54123.0,52677.0,56621.0,47258.0,-0.3000025448675481,0.51961377298239,0.5,-0.36499470472335815,-0.5149567127227783,0.228851780295372,-0.018346136435866356,0.01566639356315136,0.3915160298347473,-0.8334557414054871,1.4934238195419312,2.973562717437744,-5.196982383728027,-13.846134185791016,-2.796607494354248,52637.0,51079.0,54865.0,51783.0,-0.29999491024331576,-0.5196181808098181,0.5
1.595,TAKEOFF,abrupt,1.0,0.5904210209846497,0.004269447177648544,0.2501033842563629,-0.021618254482746124,0.024926379323005676,0.38455942273139954,-0.3513646721839905,-0.8441835641860962,6.355240345001221,2.951831340789795,9.075823783874512,-2.7292799949645996,53014.0,48165.0,52772.0,47131.0,0.6,0.0,0.5,-0.488456130027771,0.6262372136116028,0.2269853949546814,0.1904420554637909,-0.013548595830798149,0.44127824902534485,1.22932767868042,-0.8713672757148743,7.962117671966553,-0.1895875334739685,-11.20084285736084,-10.594680786132812,54123.0,52677.0,56621.0,47258.0,-0.3000025448675481,0.51961377298239,0.5,-0.36807340383529663,-0.514060378074646,0.26658666133880615,-0.018346136435866356,0.01566639356315136,0.3915160298347473,-0.8334557414054871,1.4934238195419312,2.973562717437744,-5.196982383728027,-13.846134185791016,-2.796607494354248,52637.0,51079.0,54865.0,51783.0,-0.29999491024331576,-0.5196181808098181,0.5
1.615,TAKEOFF,abrupt,1.0,0.5904210209846497,0.004269447177648544,0.2501033842563629,-0.01850147172808647,0.026261815801262856,0.3798334002494812,-0.2698001265525818,-1.0071609020233154,6.292283058166504,4.7257771492004395,6.522289752960205,-3.4558119773864746,52559.0,49719.0,52993.0,45410.0,0.6,0.0,0.5,-0.488456130027771,0.6262372136116028,0.2269853949546814,0.1904420554637909,-0.013548595830798149,0.44127824902534485,1.2319656610488892,-0.6713089942932129,7.7463555335998535,-4.443437099456787,-13.955621719360352,-9.714020729064941,52693.0,51929.0,57617.0,47597.0,-0.3000025448675481,0.51961377298239,0.5,-0.36807340383529663,-0.514060378074646,0.26658666133880615,-0.03992253541946411,0.01974988728761673,0.38858526945114136,-0.8747783899307251,1.7945057153701782,2.8919708728790283,1.3880168199539185,-8.306575775146484,-3.7681820392608643,53325.0,51693.0,54286.0,50239.0,-0.29999491024331576,-0.5196181808098181,0.5
1.635,TAKEOFF,abrupt,1.0,0.5904210209846497,0.004269447177648544,0.2501033842563629,0.013549038209021091,0.005033771973103285,0.37715867161750793,-0.1233777180314064,-1.126387357711792,6.210968017578125,3.8626434803009033,4.389997482299805,-3.8157665729522705,52196.0,48610.0,53328.0,46759.0,0.6,0.0,0.5,-0.488456130027771,0.6262372136116028,0.2269853949546814,0.19564348459243774,-0.02117984928190708,0.4428348243236542,1.1239774227142334,-0.41818657517433167,7.544073104858398,-14.60923957824707,-16.484350204467773,-9.919625282287598,52646.0,51590.0,57320.0,47706.0,-0.3000025448675481,0.51961377298239,0.5,-0.36807340383529663,-0.514060378074646,0.26658666133880615,-0.04332621768116951,0.019030695781111717,0.38802364468574524,-0.890250563621521,1.9694687128067017,2.8364202976226807,7.326112270355225,-0.16175583004951477,-3.2679803371429443,53392.0,51122.0,53533.0,51504.0,-0.29999491024331576,-0.5196181808098181,0.5
1.655,TAKEOFF,abrupt,1.0,0.5904210209846497,0.004269447177648544,0.2501033842563629,0.017902104184031487,0.0008282640483230352,0.3712027072906494,0.12577350437641144,-1.2701339721679688,6.079524040222168,5.4696526527404785,-1.6281520128250122,-4.265452861785889,53196.0,49010.0,51808.0,45890.0,0.6,0.0,0.5,-0.488456130027771,0.6262372136116028,0.2269853949546814,0.19564348459243774,-0.02117984928190708,0.4428348243236542,0.8759349584579468,-0.08969813585281372,7.328968524932861,-9.652112007141113,-16.3261775970459,-10.910928726196289,51686.0,52565.0,57702.0,46294.0,-0.3000025448675481,0.51961377298239,0.5,-0.36807340383529663,-0.514060378074646,0.26658666133880615,-0.04969486966729164,0.020949451252818108,0.38325396180152893,-0.7130441069602966,1.9154683351516724,2.74855899810791,10.58643627166748,8.817136764526367,-3.401538848876953,54406.0,51055.0,52700.0,50741.0,-0.29999491024331576,-0.5196181808098181,0.5
1.675,TAKEOFF,abrupt,1.0,0.5961476564407349,0.004635259043425322,0.28868013620376587,0.017902104184031487,0.0008282640483230352,0.3712027072906494,0.18053209781646729,-1.2111891508102417,6.028579235076904,0.7201733589172363,-4.1876935958862305,-5.193597793579102,52196.0,48676.0,52727.0,46395.0,0.6,0.0,0.5,-0.488456130027771,0.6262372136116028,0.2269853949546814,0.19665397703647614,-0.024279937148094177,0.4423152804374695,0.7138595581054688,0.2707407474517822,7.114224910736084,-2.781461715698242,-22.42767906188965,-8.258713722229004,51852.0,52987.0,57173.0,45590.0,-0.3000025448675481,0.51961377298239,0.5,-0.3706635534763336,-0.5157731175422668,0.30627572536468506,-0.05522923171520233,0.022074684500694275,0.3783971667289734,-0.4800506830215454,1.7144663333892822,2.68239164352417,15.146824836730957,15.589634895324707,-3.0331249237060547,54199.0,50319.0,52836.0,51225.0,-0.29999491024331576,-0.5196181808098181,0.5
1.696,TAKEOFF,abrupt,1.0,0.5961476564407349,0.004635259043425322,0.28868013620376587,0.021987611427903175,0.010563790798187256,0.36114659905433655,0.15233328938484192,-1.1167248487472534,5.940183639526367,-3.1884982585906982,-9.249390602111816,-4.435842514038086,52062.0,48592.0,52867.0,46343.0,0.6,0.0,0.5,-0.4689272344112396,0.6238552927970886,0.2711397409439087,0.19471368193626404,-0.029386216774582863,0.4394289255142212,0.6584381461143494,0.6735284328460693,6.9366655349731445,-2.498697280883789,-20.859464645385742,-6.136418342590332,50431.0,52389.0,58047.0,45163.0,-0.3000025448675481,0.51961377298239,0.5,-0.3706635534763336,-0.5157731175422668,0.30627572536468506,-0.05522923171520233,0.022074684500694275,0.3783971667289734,-0.2122766524553299,1.3925336599349976,2.6287896633148193,10.481146812438965,15.919651985168457,-1.7422897815704346,54341.0,50278.0,52541.0,51049.0,-0.29999491024331576,-0.5196181808098181,0.5
1.716,TAKEOFF,abrupt,1.0,0.5961476564407349,0.004635259043425322,0.28868013620376587,0.034729115664958954,0.012839088216423988,0.3524416387081146,0.04281524196267128,-0.9202919602394104,5.909404277801514,-5.505710601806641,-11.134169578552246,-4.297900199890137,50478.0,49914.0,53482.0,45875.0,0.6,0.0,0.5,-0.4689272344112396,0.6238552927970886,0.2711397409439087,0.1915910542011261,-0.03182784467935562,0.43456676602363586,0.5956922769546509,1.1386973857879639,6.803997993469238,-7.7925333976745605,-27.037675857543945,-5.8191237449646,50431.0,52389.0,58047.0,45163.0,-0.3000025448675481,0.51961377298239,0.5,-0.3706635534763336,-0.5157731175422668,0.30627572536468506,-0.05800621584057808,0.015193869359791279,0.38013944029808044,0.04084540531039238,1.066284418106079,2.5954315662384033,4.786003589630127,16.08152198791504,-1.9288175106048584,53353.0,50719.0,52843.0,50587.0,-0.29999491024331576,-0.5196181808098181,0.5
1.737,TAKEOFF,abrupt,1.0,0.5961476564407349,0.004635259043425322,0.28868013620376587,0.035925012081861496,-0.002403934020549059,0.3368191421031952,-0.02755156345665455,-0.5356058478355408,5.660491466522217,-7.45225715637207,-9.852574348449707,-3.3984248638153076,50118.0,49819.0,53272.0,46624.0,0.6,0.0,0.5,-0.4689272344112396,0.6238552927970886,0.2711397409439087,0.1867808848619461,-0.03402990847826004,0.42973053455352783,0.33165597915649414,1.9057583808898926,6.541433811187744,-10.651439666748047,-15.36689281463623,-5.063664436340332,50961.0,52424.0,57138.0,44730.0,-0.3000025448675481,0.51961377298239,0.5,-0.3706635534763336,-0.5157731175422668,0.30627572536468506,-0.06401317566633224,0.01221374236047268,0.36596301198005676,0.17818890511989594,0.5389333367347717,2.4842638969421387,-1.8941154479980469,9.17397689819336,-2.937840223312378,52905.0,50021.0,52948.0,50533.0,-0.29999491024331576,-0.5196181808098181,0.5
1.755,TAKEOFF,abrupt,1.0,0.5961476564407349,0.004635259043425322,0.28868013620376587,0.035925012081861496,-0.002403934020549059,0.3368191421031952,-0.02755156345665455,-0.5356058478355408,5.660491466522217,-7.45225715637207,-9.852574348449707,-3.3984248638153076,50118.0,49819.0,53272.0,46624.0,0.6,0.0,0.5,-0.4689272344112396,0.6238552927970886,0.2711397409439087,0.1867808848619461,-0.03402990847826004,0.42973053455352783,0.33165597915649414,1.9057583808898926,6.541433811187744,-10.651439666748047,-15.36689281463623,-5.063664436340332,50961.0,52424.0,57138.0,44730.0,-0.3000025448675481,0.51961377298239,0.5,-0.3706635534763336,-0.5157731175422668,0.30627572536468506,-0.06401317566633224,0.01221374236047268,0.36596301198005676,0.17818890511989594,0.5389333367347717,2.4842638969421387,-1.8941154479980469,9.17397689819336,-2.937840223312378,52905.0,50021.0,52948.0,50533.0,-0.29999491024331576,-0.5196181808098181,0.5
1.775,TAKEOFF,abrupt,1.0,0.5957750082015991,0.004489619750529528,0.3238815367221832,0.03242068737745285,-0.003270247485488653,0.33539897203445435,-0.07858796417713165,-0.3262478709220886,5.541781902313232,5.014092445373535,-9.547435760498047,-3.4974632263183594,51050.0,50075.0,53538.0,44187.0,0.6,0.0,0.5,-0.4689272344112396,0.6238552927970886,0.2711397409439087,0.16958391666412354,-0.04573706164956093,0.3955819606781006,-0.0019127075793221593,2.5454156398773193,6.387054920196533,-9.787115097045898,-12.550247192382812,-3.4562747478485107,51063.0,52104.0,57468.0,45500.0,-0.3000025448675481,0.51961377298239,0.5,-0.3827317953109741,-0.5100073218345642,0.3420746922492981,-0.0652179941534996,0.011745486408472061,0.35812506079673767,0.1388085037469864,0.3918130397796631,2.4168455600738525,-2.4857943058013916,4.270190238952637,-3.7706964015960693,53049.0,50136.0,52636.0,50374.0,-0.29999491024331576,-0.5196181808098181,0.5
1.796,TAKEOFF,abrupt,1.0,0.5957750082015991,0.004489619750529528,0.3238815367221832,0.028588104993104935,0.006481355056166649,0.3276209533214569,-0.1326167732477188,0.18869319558143616,5.4472551345825195,-0.23321400582790375,-9.746784210205078,-4.164699077606201,51237.0,48063.0,53151.0,46539.0,0.6,0.0,0.5,-0.45473551750183105,0.6209758520126343,0.3135659098625183,0.14341585338115692,-0.03925899416208267,0.38897204399108887,-0.5885469913482666,2.9693763256073,6.232186794281006,-9.941007614135742,-3.482297420501709,-4.105090141296387,49854.0,50721.0,58082.0,46882.0,-0.3000025448675481,0.51961377298239,0.5,-0.3827317953109741,-0.5100073218345642,0.3420746922492981,-0.10322201251983643,0.03475435450673103,0.32559266686439514,-0.06776388734579086,0.4947487413883209,2.2190868854522705,7.322131156921387,3.948328733444214,-3.347677230834961,52285.0,50387.0,53627.0,50499.0,-0.29999491024331576,-0.5196181808098181,0.5
1.815,TAKEOFF,abrupt,1.0,0.5957750082015991,0.004489619750529528,0.3238815367221832,0.028588104993104935,0.006481355056166649,0.3276209533214569,-0.1326167732477188,0.18869319558143616,5.4472551345825195,-0.23321400582790375,-9.746784210205078,-4.164699077606201,51237.0,48063.0,53151.0,46539.0,0.6,0.0,0.5,-0.45473551750183105,0.6209758520126343,0.3135659098625183,0.14341585338115692,-0.03925899416208267,0.38897204399108887,-0.5885469913482666,2.9693763256073,6.232186794281006,-9.941007614135742,-3.482297420501709,-4.105090141296387,49854.0,50721.0,58082.0,46882.0,-0.3000025448675481,0.51961377298239,0.5,-0.3827317953109741,-0.5100073218345642,0.3420746922492981,-0.10322201251983643,0.03475435450673103,0.32559266686439514,-0.06776388734579086,0.4947487413883209,2.2190868854522705,7.322131156921387,3.948328733444214,-3.347677230834961,52285.0,50387.0,53627.0,50499.0,-0.29999491024331576,-0.5196181808098181,0.5
1.835,TAKEOFF,abrupt,1.0,0.5957750082015991,0.004489619750529528,0.3238815367221832,0.02335025742650032,0.005874441470950842,0.3171849548816681,-0.1608821600675583,0.3914191722869873,5.378719329833984,-1.182989239692688,-7.099120616912842,-5.11230993270874,51546.0,48671.0,52680.0,45998.0,0.6,0.0,0.5,-0.45473551750183105,0.6209758520126343,0.3135659098625183,0.14341585338115692,-0.03925899416208267,0.38897204399108887,-0.7188634872436523,2.988438606262207,6.128997802734375,-9.281353950500488,-1.44791579246521,-2.7490055561065674,50198.0,51260.0,57660.0,45950.0,-0.3000025448675481,0.51961377298239,0.5,-0.3827317953109741,-0.5100073218345642,0.3420746922492981,-0.10436268150806427,0.035771436989307404,0.3193361461162567,0.07896480709314346,0.37881383299827576,2.172813653945923,13.445229530334473,12.380837440490723,-3.221977710723877,52957.0,50493.0,52906.0,50391.0,-0.29999491024331576,-0.5196181808098181,0.5
1.855,TAKEOFF,abrupt,1.0,0.5957750082015991,0.004489619750529528,0.3238815367221832,0.022608423605561256,0.00607659574598074,0.3124829828739166,-0.18271057307720184,0.46724456548690796,5.287252902984619,-3.6022284030914307,0.4926958978176117,-4.954601764678955,51272.0,48869.0,52876.0,45837.0,0.6,0.0,0.5,-0.45473551750183105,0.6209758520126343,0.3135659098625183,0.13848546147346497,-0.04445357248187065,0.371462881565094,-0.8020477890968323,3.0024352073669434,6.098331451416016,-8.066933631896973,0.7308056354522705,-3.1073405742645264,50159.0,50930.0,57906.0,46371.0,-0.3000025448675481,0.51961377298239,0.5,-0.3827317953109741,-0.5100073218345642,0.3420746922492981,-0.10542798787355423,0.03528293967247009,0.31104692816734314,0.33725908398628235,0.14002062380313873,2.110166311264038,14.261991500854492,14.62562370300293,-2.761876106262207,53111.0,50907.0,52719.0,49961.0,-0.29999491024331576,-0.5196181808098181,0.5
1.876,TAKEOFF,abrupt,1.0,0.5957750082015991,0.004489619750529528,0.3238815367221832,0.02980656549334526,0.009730353951454163,0.3053849935531616,-0.2610829770565033,0.47414150834083557,5.317768573760986,-3.0274972915649414,4.385282516479492,-5.317272663116455,49976.0,49586.0,51769.0,47660.0,0.6,0.0,0.5,-0.45473551750183105,0.6209758520126343,0.3135659098625183,0.1334782987833023,-0.043805528432130814,0.3674295246601105,-0.9779385328292847,3.009895086288452,5.9966349601745605,-8.220996856689453,4.412036418914795,-2.5040597915649414,49949.0,50825.0,57940.0,46497.0,-0.3000025448675481,0.51961377298239,0.5,-0.3827317953109741,-0.5100073218345642,0.3420746922492981,-0.10562466830015182,0.03397291898727417,0.30258870124816895,0.6043473482131958,-0.18340808153152466,2.047740936279297,13.539671897888184,17.965892791748047,-4.632819175720215,53812.0,50168.0,51891.0,50768.0,-0.29999491024331576,-0.5196181808098181,0.5
1.895,TAKEOFF,abrupt,1.0,0.6036099791526794,0.00513030868023634,0.35616788268089294,0.03338378295302391,0.00970934797078371,0.29565128684043884,-0.2506159245967865,0.32719922065734863,5.137204647064209,-1.0134433507919312,3.848604202270508,-6.059986114501953,50844.0,50568.0,51093.0,46454.0,0.6,0.0,0.5,-0.440909743309021,0.615913987159729,0.3436290919780731,0.10689638555049896,-0.03791697323322296,0.33624595403671265,-1.1682243347167969,2.8809638023376465,5.854270935058594,-5.958181381225586,5.0121660232543945,-1.4641398191452026,50462.0,50093.0,57466.0,47135.0,-0.3000025448675481,0.51961377298239,0.5,-0.3860393762588501,-0.5117443203926086,0.3719422519207001,-0.05625313147902489,0.0003155049926135689,0.2840344309806824,0.6043473482131958,-0.18340808153152466,2.047740936279297,13.539671897888184,17.965892791748047,-4.632819175720215,53375.0,50191.0,52295.0,50790.0,-0.29999491024331576,-0.5196181808098181,0.5
1.915,TAKEOFF,abrupt,1.0,0.6036099791526794,0.00513030868023634,0.35616788268089294,0.032654184848070145,0.01049713883548975,0.2892421782016754,-0.25865688920021057,0.16965252161026,4.918309211730957,-1.6741712093353271,5.8550896644592285,-4.123673439025879,50697.0,48533.0,53213.0,46169.0,0.6,0.0,0.5,-0.440909743309021,0.615913987159729,0.3436290919780731,0.10170413553714752,-0.03630409762263298,0.316378116607666,-1.2029060125350952,2.7968051433563232,5.855063438415527,-7.454875946044922,3.244657039642334,-0.2673693895339966,50315.0,52539.0,56874.0,46052.0,-0.3000025448675481,0.51961377298239,0.5,-0.3860393762588501,-0.5117443203926086,0.3719422519207001,-0.05300457403063774,-0.003315332578495145,0.27408522367477417,1.1037126779556274,-0.8835563063621521,2.0079054832458496,9.547734260559082,17.572071075439453,-3.381601572036743,54946.0,50597.0,50896.0,50711.0,-0.29999491024331576,-0.5196181808098181,0.5
1.936,TAKEOFF,abrupt,1.0,0.6036099791526794,0.00513030868023634,0.35616788268089294,0.032151900231838226,0.011380886659026146,0.2810370624065399,-0.28748494386672974,0.12094299495220184,4.814414024353027,-0.03920583426952362,-2.2814364433288574,-5.738593101501465,51468.0,49023.0,52324.0,45815.0,0.6,0.0,0.5,-0.440909743309021,0.615913987159729,0.3436290919780731,0.08275506645441055,-0.02745102159678936,0.31223684549331665,-1.3688626289367676,2.790839433670044,5.87498140335083,-2.7595176696777344,4.646560192108154,-0.33278438448905945,50871.0,51582.0,57734.0,45900.0,-0.3000025448675481,0.51961377298239,0.5,-0.3860393762588501,-0.5117443203926086,0.3719422519207001,-0.028264008462429047,-0.02298426255583763,0.2646220326423645,1.2848553657531738,-1.2146196365356445,1.9500231742858887,3.7377243041992188,14.579977989196777,-2.691797971725464,53891.0,49935.0,52175.0,51378.0,-0.29999491024331576,-0.5196181808098181,0.5
1.956,TAKEOFF,abrupt,1.0,0.6036099791526794,0.00513030868023634,0.35616788268089294,0.03156307712197304,0.012253846041858196,0.27332592010498047,-0.2777945101261139,0.17577902972698212,4.700002670288086,0.9210147261619568,-5.855363368988037,-6.6288604736328125,51002.0,47946.0,52643.0,47208.0,0.6,0.0,0.5,-0.440909743309021,0.615913987159729,0.3436290919780731,0.0734124705195427,-0.023732323199510574,0.30159318447113037,-1.4618035554885864,2.717458724975586,5.857079982757568,-6.046648979187012,6.786307334899902,-0.1015269085764885,50646.0,50369.0,57829.0,47158.0,-0.3000025448675481,0.51961377298239,0.5,-0.3860393762588501,-0.5117443203926086,0.3719422519207001,-0.03578956425189972,-0.03913458436727524,0.2633253037929535,1.432600975036621,-1.615713119506836,1.885047197341919,-6.17032527923584,3.918473958969116,-2.5861072540283203,53558.0,49862.0,52557.0,51537.0,-0.29999491024331576,-0.5196181808098181,0.5
1.976,TAKEOFF,abrupt,1.0,0.6046653389930725,0.010638955049216747,0.38520172238349915,0.01068611815571785,0.04190138354897499,0.25959357619285583,-0.4679678678512573,0.5737194418907166,4.569589614868164,3.085413932800293,-13.586512565612793,-6.074376583099365,49943.0,49105.0,53522.0,45890.0,0.6,0.0,0.5,-0.440909743309021,0.615913987159729,0.3436290919780731,0.0803367868065834,-0.026151783764362335,0.2730041444301605,-1.5125951766967773,2.496412515640259,5.838501453399658,-4.347367286682129,7.348696708679199,0.42431312799453735,50958.0,51323.0,58165.0,46591.0,-0.3000025448675481,0.51961377298239,0.5,-0.38993215560913086,-0.5140324831008911,0.39769992232322693,-0.04004881903529167,-0.02908845618367195,0.24835695326328278,0.9461031556129456,-1.3804587125778198,1.7968124151229858,-18.93255043029785,-13.2894926071167,-2.741732597351074,52735.0,49554.0,53383.0,51933.0,-0.29999491024331576,-0.5196181808098181,0.5
1.995,TAKEOFF,abrupt,1.0,0.6046653389930725,0.010638955049216747,0.38520172238349915,0.01068611815571785,0.04190138354897499,0.25959357619285583,-0.4679678678512573,0.5737194418907166,4.569589614868164,3.085413932800293,-13.586512565612793,-6.074376583099365,49943.0,49105.0,53522.0,45890.0,0.6,0.0,0.5,-0.440909743309021,0.615913987159729,0.3436290919780731,0.0803367868065834,-0.026151783764362335,0.2730041444301605,-1.5125951766967773,2.496412515640259,5.838501453399658,-4.347367286682129,7.348696708679199,0.42431312799453735,50958.0,51323.0,58165.0,46591.0,-0.3000025448675481,0.51961377298239,0.5,-0.38993215560913086,-0.5140324831008911,0.39769992232322693,-0.04004881903529167,-0.02908845618367195,0.24835695326328278,0.9461031556129456,-1.3804587125778198,1.7968124151229858,-18.93255043029785,-13.2894926071167,-2.741732597351074,52735.0,49554.0,53383.0,51933.0,-0.29999491024331576,-0.5196181808098181,0.5
2.015,TAKEOFF,abrupt,1.0,0.6046653389930725,0.010638955049216747,0.38520172238349915,0.01068611815571785,0.04190138354897499,0.25959357619285583,-0.41205164790153503,0.8366089463233948,4.45300817489624,2.305419683456421,-12.591670989990234,-5.952762603759766,50492.0,49700.0,53077.0,45227.0,0.6,0.0,0.5,-0.43505167961120605,0.6140831112861633,0.37213966250419617,0.0803367868065834,-0.026151783764362335,0.2730041444301605,-1.6250991821289062,2.4327290058135986,5.8182783126831055,-0.8227536678314209,3.2493033409118652,0.3944737911224365,50958.0,51323.0,58165.0,46591.0,-0.3000025448675481,0.51961377298239,0.5,-0.38993215560913086,-0.5140324831008911,0.39769992232322693,-0.03459756448864937,-0.028483930975198746,0.23651497066020966,0.5339024662971497,-1.145402431488037,1.761216640472412,-19.575212478637695,-16.67621612548828,-3.2866604328155518,51887.0,50333.0,54283.0,51439.0,-0.29999491024331576,-0.5196181808098181,0.5
2.035,TAKEOFF,abrupt,1.0,0.6046653389930725,0.010638955049216747,0.38520172238349915,0.0034440273884683847,0.04713177680969238,0.24427826702594757,-0.3426302671432495,1.004266619682312,4.3967061042785645,4.374152183532715,-2.6436455249786377,-6.208644866943359,51113.0,49068.0,52371.0,46027.0,0.6,0.0,0.5,-0.43505167961120605,0.6140831112861633,0.37213966250419617,0.06280314922332764,-0.025489991530776024,0.26993221044540405,-1.6941680908203125,2.355339288711548,5.807832717895508,1.1062812805175781,0.7404452562332153,0.26105037331581116,51403.0,51937.0,57589.0,46473.0,-0.3000025448675481,0.51961377298239,0.5,-0.38993215560913086,-0.5140324831008911,0.39769992232322693,-0.04008590057492256,-0.031188014894723892,0.2255735844373703,0.12673531472682953,-0.8332768678665161,1.7093701362609863,-18.159835815429688,-13.567049026489258,-3.8459479808807373,52594.0,50875.0,53717.0,51109.0,-0.29999491024331576,-0.5196181808098181,0.5
2.056,TAKEOFF,abrupt,1.0,0.6046653389930725,0.010638955049216747,0.38520172238349915,-0.027753550559282303,0.023816611617803574,0.24909944832324982,-0.1830800473690033,0.9983693361282349,4.263141632080078,12.52409553527832,2.8967745304107666,-7.121922492980957,50762.0,48614.0,52605.0,46795.0,0.6,0.0,0.5,-0.43505167961120605,0.6140831112861633,0.37213966250419617,0.04466135799884796,-0.015076400712132454,0.2541893422603607,-1.6853053569793701,2.3290750980377197,5.810276031494141,2.4446828365325928,2.9336023330688477,-0.3660477101802826,51343.0,52549.0,57880.0,45407.0,-0.3000025448675481,0.51961377298239,0.5,-0.38993215560913086,-0.5140324831008911,0.39769992232322693,-0.035795170813798904,-0.034382376819849014,0.22445687651634216,-0.17936338484287262,-0.4805363714694977,1.6301751136779785,-8.85478401184082,-6.989214897155762,-3.978060483932495,53073.0,51359.0,53032.0,50543.0,-0.29999491024331576,-0.5196181808098181,0.5
2.075,TAKEOFF,abrupt,1.0,0.5992319583892822,0.009803756140172482,0.41370922327041626,-0.02966034784913063,0.022539865225553513,0.24290922284126282,0.1764519363641739,1.089735507965088,4.1883063316345215,10.239635467529297,8.793794631958008,-7.467601299285889,51442.0,50011.0,51626.0,44629.0,0.6,0.0,0.5,-0.43505167961120605,0.6140831112861633,0.37213966250419617,0.03662111237645149,-0.010393531993031502,0.24747984111309052,-1.6092828512191772,2.0814905166625977,5.79006814956665,-0.6669567823410034,8.867756843566895,0.6704413890838623,51603.0,50326.0,57809.0,47620.0,-0.3000025448675481,0.51961377298239,0.5,-0.3935401439666748,-0.520952045917511,0.42165687680244446,-0.02899825945496559,-0.0367179773747921,0.21877579391002655,-0.24677124619483948,-0.4279799461364746,1.4784821271896362,3.870798349380493,3.152728796005249,-3.229757785797119,53569.0,51316.0,52399.0,50423.0,-0.29999491024331576,-0.5196181808098181,0.5
2.095,TAKEOFF,abrupt,1.0,0.5992319583892822,0.009803756140172482,0.41370922327041626,-0.03229285776615143,0.020455220714211464,0.2396506667137146,0.46347829699516296,0.8852759003639221,4.082870006561279,9.617563247680664,12.010360717773438,-6.908205509185791,51369.0,49180.0,51537.0,45769.0,0.6,0.0,0.5,-0.43923601508140564,0.6188083291053772,0.4005889296531677,-0.012832743115723133,0.024097932502627373,0.24553219974040985,-1.8180854320526123,2.119448661804199,5.832540035247803,1.7731736898422241,8.911294937133789,0.5048462748527527,52082.0,50297.0,57440.0,47622.0,-0.3000025448675481,0.51961377298239,0.5,-0.3935401439666748,-0.520952045917511,0.42165687680244446,-0.027550602331757545,-0.03592314198613167,0.2125352919101715,-0.24677124619483948,-0.4279799461364746,1.4784821271896362,3.870798349380493,3.152728796005249,-3.229757785797119,53954.0,51076.0,51971.0,50750.0,-0.29999491024331576,-0.5196181808098181,0.5
2.115,TAKEOFF,abrupt,1.0,0.5992319583892822,0.009803756140172482,0.41370922327041626,-0.03372323885560036,0.017886998131871223,0.23548536002635956,0.5602179169654846,0.7325988411903381,4.069190979003906,1.7321721315383911,17.246187210083008,-7.0787434577941895,50266.0,50798.0,51341.0,45159.0,0.6,0.0,0.5,-0.43923601508140564,0.6188083291053772,0.4005889296531677,-0.012832743115723133,0.024097932502627373,0.24553219974040985,-1.8205996751785278,1.9586644172668457,5.846124649047852,10.927849769592285,14.08670711517334,-2.754743814468384,49813.0,50363.0,58959.0,47090.0,-0.3000025448675481,0.51961377298239,0.5,-0.3935401439666748,-0.520952045917511,0.42165687680244446,-0.02589942328631878,-0.03538328409194946,0.20635297894477844,-0.16659954190254211,-0.4874073565006256,1.4126880168914795,3.520533800125122,3.1138546466827393,-2.947084903717041,53715.0,50878.0,52261.0,50946.0,-0.29999491024331576,-0.5196181808098181,0.5
2.136,TAKEOFF,abrupt,1.0,0.5992319583892822,0.009803756140172482,0.41370922327041626,-0.035178132355213165,0.015705298632383347,0.22726717591285706,0.6508376598358154,0.4089345633983612,3.932762622833252,0.013728796504437923,14.388739585876465,-6.828502655029297,50718.0,47768.0,52194.0,47159.0,0.6,0.0,0.5,-0.43923601508140564,0.6188083291053772,0.4005889296531677,-0.031862031668424606,0.03944941982626915,0.23813602328300476,-1.6013762950897217,1.6732661724090576,5.790496349334717,18.311376571655273,23.589372634887695,-3.8288660049438477,50318.0,51367.0,58314.0,46178.0,-0.3000025448675481,0.51961377298239,0.5,-0.3935401439666748,-0.520952045917511,0.42165687680244446,-0.047307707369327545,-0.006881710607558489,0.1981123834848404,-0.12044787406921387,-0.5506991744041443,1.3599534034729004,-0.3475630581378937,1.5459212064743042,-2.2895708084106445,52635.0,49806.0,53521.0,51906.0,-0.29999491024331576,-0.5196181808098181,0.5
2.156,TAKEOFF,abrupt,1.0,0.5992319583892822,0.009803756140172482,0.41370922327041626,-0.03565659001469612,0.013574628159403801,0.21729959547519684,0.6294124126434326,0.10792779177427292,3.8021655082702637,-4.528846740722656,13.465653419494629,-6.9444050788879395,50708.0,47947.0,52120.0,47224.0,0.6,0.0,0.5,-0.43923601508140564,0.6188083291053772,0.4005889296531677,-0.03667697310447693,0.0433490015566349,0.23354215919971466,-1.174818515777588,1.1625080108642578,5.689308166503906,29.231595993041992,37.322750091552734,-6.008549213409424,52736.0,52019.0,56272.0,45611.0,-0.3000025448675481,0.51961377298239,0.5,-0.3935401439666748,-0.520952045917511,0.42165687680244446,-0.023467570543289185,-0.016087675467133522,0.18740223348140717,-0.4043826758861542,-0.4240068793296814,1.3477351665496826,-8.142988204956055,1.9385523796081543,-1.5868864059448242,52870.0,50304.0,53064.0,51775.0,-0.29999491024331576,-0.5196181808098181,0.5
2.176,TAKEOFF,abrupt,1.0,0.5993797183036804,0.010469576343894005,0.4359971284866333,-0.014483599923551083,0.004393570590764284,0.19604294002056122,0.4672450125217438,-0.4365476071834564,3.6048998832702637,-8.099284172058105,10.860431671142578,-4.3880228996276855,51050.0,49496.0,51635.0,45069.0,0.6,0.0,0.5,-0.43923601508140564,0.6188083291053772,0.4005889296531677,-0.03902279958128929,0.045651473104953766,0.22998283803462982,0.14074543118476868,-0.3926734924316406,5.3880438804626465,34.87854766845703,42.41619873046875,-7.284709453582764,53132.0,52886.0,53813.0,47524.0,-0.3000025448675481,0.51961377298239,0.5,-0.3950222134590149,-0.5206142067909241,0.4401804506778717,-0.008780315518379211,-0.022510383278131485,0.1825990527868271,-0.5778993964195251,-0.826274573802948,1.2833057641983032,-4.583304405212402,3.7286291122436523,-1.030523419380188,53736.0,49970.0,52620.0,51985.0,-0.29999491024331576,-0.5196181808098181,0.5
2.195,TAKEOFF,abrupt,1.0,0.5993797183036804,0.010469576343894005,0.4359971284866333,-0.014483599923551083,0.004393570590764284,0.19604294002056122,0.4672450125217438,-0.4365476071834564,3.6048998832702637,-8.099284172058105,10.860431671142578,-4.3880228996276855,51050.0,49496.0,51635.0,45069.0,0.6,0.0,0.5,-0.4366784989833832,0.6206768155097961,0.4179423749446869,-0.03902279958128929,0.045651473104953766,0.22998283803462982,0.14074543118476868,-0.3926734924316406,5.3880438804626465,34.87854766845703,42.41619873046875,-7.284709453582764,53132.0,52886.0,53813.0,47524.0,-0.3000025448675481,0.51961377298239,0.5,-0.3950222134590149,-0.5206142067909241,0.4401804506778717,-0.008780315518379211,-0.022510383278131485,0.1825990527868271,-0.5778993964195251,-0.826274573802948,1.2833057641983032,-4.583304405212402,3.7286291122436523,-1.030523419380188,53736.0,49970.0,52620.0,51985.0,-0.29999491024331576,-0.5196181808098181,0.5
2.215,TAKEOFF,abrupt,1.0,0.5993797183036804,0.010469576343894005,0.4359971284866333,0.001768751535564661,-0.00570720387622714,0.1871926188468933,0.45044198632240295,-0.8006861209869385,3.401876449584961,-1.115454077720642,6.848494529724121,-5.535322189331055,50926.0,49352.0,51142.0,47310.0,0.6,0.0,0.5,-0.4366784989833832,0.6206768155097961,0.4179423749446869,0.004108949564397335,0.023225925862789154,0.1906731277704239,1.022868037223816,-1.5058199167251587,5.209466934204102,32.42660903930664,34.17521286010742,-8.800015449523926,54283.0,51669.0,53150.0,48273.0,-0.3000025448675481,0.51961377298239,0.5,-0.3950222134590149,-0.5206142067909241,0.4401804506778717,-0.003103082301095128,-0.018100375309586525,0.17321312427520752,-0.6663447022438049,-0.8851056098937988,1.2610329389572144,-3.370712995529175,0.6437145471572876,-1.4094338417053223,53376.0,50829.0,53068.0,51113.0,-0.29999491024331576,-0.5196181808098181,0.5
2.235,TAKEOFF,abrupt,1.0,0.5993797183036804,0.010469576343894005,0.4359971284866333,-0.0013339020079001784,-0.011967835947871208,0.1773705631494522,0.39805325865745544,-0.9086022973060608,3.2969682216644287,-2.061619520187378,1.1649633646011353,-4.8619256019592285,51797.0,49331.0,51498.0,46269.0,0.6,0.0,0.5,-0.4366784989833832,0.6206768155097961,0.4179423749446869,0.004108949564397335,0.023225925862789154,0.1906731277704239,1.6231586933135986,-2.1609158515930176,5.053247451782227,16.08412742614746,18.648488998413086,-8.65036678314209,54565.0,52458.0,53449.0,49344.0,-0.3000025448675481,0.51961377298239,0.5,-0.3950222134590149,-0.5206142067909241,0.4401804506778717,-0.022067643702030182,0.009974353946745396,0.160924032330513,-0.9134709239006042,-0.5915820598602295,1.2593944072723389,-0.6985622048377991,-6.216331958770752,-0.9130569696426392,53507.0,50873.0,52918.0,51086.0,-0.29999491024331576,-0.5196181808098181,0.5
2.256,TAKEOFF,abrupt,1.0,0.5993797183036804,0.010469576343894005,0.4359971284866333,0.0019370636437088251,-0.011994186788797379,0.16625139117240906,0.3676726520061493,-0.9197155237197876,3.1732544898986816,1.635994791984558,-3.9659478664398193,-4.478133201599121,50534.0,50266.0,51948.0,46124.0,0.6,0.0,0.5,-0.4366784989833832,0.6206768155097961,0.4179423749446869,0.012608079239726067,0.017764698714017868,0.18369676172733307,1.9347869157791138,-2.5384578704833984,4.8272480964660645,1.7375681400299072,1.6067006587982178,-9.360023498535156,54390.0,52355.0,54850.0,47494.0,-0.3000025448675481,0.51961377298239,0.5,-0.3950222134590149,-0.5206142067909241,0.4401804506778717,-0.02026544325053692,0.013048030436038971,0.15505874156951904,-0.9182738661766052,-0.45638349652290344,1.2419331073760986,0.31918278336524963,-8.096549987792969,-1.5546741485595703,52823.0,51207.0,53837.0,50989.0,-0.29999491024331576,-0.5196181808098181,0.5
2.276,TAKEOFF,abrupt,1.0,0.6023462414741516,0.00691083213314414,0.45334264636039734,0.0062289852648973465,-0.01404553186148405,0.15191078186035156,0.4018141031265259,-0.6339741349220276,3.01959490776062,-5.533536434173584,-8.738712310791016,-3.2783334255218506,50701.0,50410.0,52152.0,46129.0,0.6,0.0,0.5,-0.4366784989833832,0.6206768155097961,0.4179423749446869,0.03143776208162308,0.006594854407012463,0.17728376388549805,1.8332295417785645,-2.4043216705322266,4.4538187980651855,-12.938053131103516,-17.313892364501953,-7.749423980712891,51098.0,54171.0,56831.0,46248.0,-0.3000025448675481,0.51961377298239,0.5,-0.3987862467765808,-0.5174450278282166,0.455050528049469,-0.02144497260451317,0.021272875368595123,0.14110735058784485,-0.8396044373512268,-0.40847790241241455,1.2152358293533325,1.9521952867507935,-5.549538612365723,-1.4346290826797485,53411.0,50153.0,53159.0,52179.0,-0.29999491024331576,-0.5196181808098181,0.5
2.295,TAKEOFF,abrupt,1.0,0.6023462414741516,0.00691083213314414,0.45334264636039734,0.0062289852648973465,-0.01404553186148405,0.15191078186035156,0.4018141031265259,-0.6339741349220276,3.01959490776062,-5.533536434173584,-8.738712310791016,-3.2783334255218506,50701.0,50410.0,52152.0,46129.0,0.6,0.0,0.5,-0.43460628390312195,0.6224455237388611,0.43519577383995056,0.03143776208162308,0.006594854407012463,0.17728376388549805,1.8332295417785645,-2.4043216705322266,4.4538187980651855,-12.938053131103516,-17.313892364501953,-7.749423980712891,51098.0,54171.0,56831.0,46248.0,-0.3000025448675481,0.51961377298239,0.5,-0.3987862467765808,-0.5174450278282166,0.455050528049469,-0.02144497260451317,0.021272875368595123,0.14110735058784485,-0.8396044373512268,-0.40847790241241455,1.2152358293533325,1.9521952867507935,-5.549538612365723,-1.4346290826797485,53411.0,50153.0,53159.0,52179.0,-0.29999491024331576,-0.5196181808098181,0.5
2.315,TAKEOFF,abrupt,1.0,0.6023462414741516,0.00691083213314414,0.45334264636039734,0.01508370228111744,-0.0179094560444355,0.14197853207588196,0.3251795470714569,-0.5285298824310303,2.863698959350586,-8.925578117370605,-11.469812393188477,-3.8376381397247314,50249.0,49978.0,52475.0,47079.0,0.6,0.0,0.5,-0.43460628390312195,0.6224455237388611,0.43519577383995056,0.03828274458646774,0.0009754915372468531,0.18285320699214935,1.6143420934677124,-2.0799410343170166,4.292548656463623,-8.985260009765625,-17.029197692871094,-5.311455726623535,51820.0,52900.0,56876.0,47149.0,-0.3000025448675481,0.51961377298239,0.5,-0.3987862467765808,-0.5174450278282166,0.455050528049469,-0.02485150657594204,0.0252347681671381,0.13496553897857666,-0.9024414420127869,-0.19081313908100128,1.202711820602417,7.035627841949463,-2.3855669498443604,-1.5253815650939941,52770.0,51215.0,54069.0,51398.0,-0.29999491024331576,-0.5196181808098181,0.5
2.336,TAKEOFF,abrupt,1.0,0.6023462414741516,0.00691083213314414,0.45334264636039734,0.015483883209526539,-0.01279988419264555,0.13556967675685883,0.1298399418592453,-0.2900469899177551,2.8638641834259033,-8.751379013061523,-9.231551170349121,-3.7470638751983643,50330.0,48947.0,53178.0,47432.0,0.6,0.0,0.5,-0.43460628390312195,0.6224455237388611,0.43519577383995056,0.0346800871193409,0.004145971033722162,0.18828560411930084,1.4069154262542725,-1.5862534046173096,4.1998138427734375,-6.921992301940918,-21.720947265625,-3.487025260925293,51983.0,54193.0,56999.0,45014.0,-0.3000025448675481,0.51961377298239,0.5,-0.3987862467765808,-0.5174450278282166,0.455050528049469,-0.03767278790473938,0.013387215323746204,0.14376525580883026,-0.7766854763031006,-0.10697810351848602,1.1912250518798828,6.832078456878662,-1.2407416105270386,-1.0572116374969482,53744.0,51388.0,53244.0,51285.0,-0.29999491024331576,-0.5196181808098181,0.5
2.356,TAKEOFF,abrupt,1.0,0.6023462414741516,0.00691083213314414,0.45334264636039734,0.03053039312362671,-0.015799636021256447,0.1247270479798317,-0.02505495585501194,-0.24618156254291534,2.6997766494750977,-10.301109313964844,-0.9086754322052002,-2.351825714111328,51837.0,49196.0,51956.0,47134.0,0.6,0.0,0.5,-0.43460628390312195,0.6224455237388611,0.43519577383995056,0.0346800871193409,0.004145971033722162,0.18828560411930084,1.2196027040481567,-1.140539288520813,4.1718926429748535,-3.1008450984954834,-25.193296432495117,-4.014956474304199,50659.0,51403.0,57901.0,47850.0,-0.3000025448675481,0.51961377298239,0.5,-0.3987862467765808,-0.5174450278282166,0.455050528049469,-0.03773673623800278,0.014929482713341713,0.1400882750749588,-0.506069004535675,0.011609174311161041,1.1390933990478516,9.45426082611084,0.17656449973583221,-1.752321481704712,53650.0,50829.0,52881.0,51554.0,-0.29999491024331576,-0.5196181808098181,0.5
2.376,TAKEOFF,abrupt,1.0,0.6098694801330566,0.0069572036154568195,0.465749591588974,0.03564624488353729,-0.014054185710847378,0.1114758625626564,-0.3257107436656952,-0.24762529134750366,2.552382469177246,-5.719038486480713,-1.1442785263061523,-1.415840983390808,51571.0,48992.0,52579.0,47801.0,0.6,0.0,0.5,-0.43460628390312195,0.6224455237388611,0.43519577383995056,0.05607514828443527,-0.014427725225687027,0.17894209921360016,1.1365257501602173,-0.44970807433128357,4.033608913421631,-7.2744951248168945,-13.116337776184082,-1.426783800125122,52084.0,52101.0,56036.0,47747.0,-0.3000025448675481,0.51961377298239,0.5,-0.4049231708049774,-0.5203140377998352,0.46940839290618896,-0.03544561564922333,0.012224438600242138,0.12271386384963989,-0.07357927411794662,-0.0710427388548851,1.0741075277328491,6.659292221069336,6.582984924316406,0.183580219745636,52974.0,51413.0,53908.0,51038.0,-0.29999491024331576,-0.5196181808098181,0.5
2.396,TAKEOFF,abrupt,1.0,0.6098694801330566,0.0069572036154568195,0.465749591588974,0.03564624488353729,-0.014054185710847378,0.1114758625626564,-0.3257107436656952,-0.24762529134750366,2.552382469177246,-5.719038486480713,-1.1442785263061523,-1.415840983390808,51571.0,48992.0,52579.0,47801.0,0.6,0.0,0.5,-0.43082424998283386,0.622824490070343,0.4540088176727295,0.05607514828443527,-0.014427725225687027,0.17894209921360016,1.1365257501602173,-0.44970807433128357,4.033608913421631,-7.2744951248168945,-13.116337776184082,-1.426783800125122,52084.0,52101.0,56036.0,47747.0,-0.3000025448675481,0.51961377298239,0.5,-0.4049231708049774,-0.5203140377998352,0.46940839290618896,-0.03544561564922333,0.012224438600242138,0.12271386384963989,-0.07357927411794662,-0.0710427388548851,1.0741075277328491,6.659292221069336,6.582984924316406,0.183580219745636,52974.0,51413.0,53908.0,51038.0,-0.29999491024331576,-0.5196181808098181,0.5
2.415,TAKEOFF,abrupt,1.0,0.6098694801330566,0.0069572036154568195,0.465749591588974,0.03633081540465355,-0.01272551342844963,0.10726960003376007,-0.40838927030563354,-0.20668861269950867,2.525050401687622,-1.848140001296997,-4.199258804321289,-0.08403701335191727,50701.0,50008.0,53544.0,46635.0,0.6,0.0,0.5,-0.43082424998283386,0.622824490070343,0.4540088176727295,0.056488748639822006,-0.01777535118162632,0.18098610639572144,0.956382155418396,-0.15305505692958832,3.9740989208221436,-10.571256637573242,-13.189743041992188,-0.6908372640609741,51583.0,52012.0,57096.0,46891.0,-0.3000025448675481,0.51961377298239,0.5,-0.4049231708049774,-0.5203140377998352,0.46940839290618896,-0.014881874434649944,0.005879126489162445,0.13269247114658356,0.16410492360591888,-0.5384793281555176,1.0454652309417725,-0.02445846050977707,9.16867446899414,-0.6475206017494202,53897.0,50261.0,53171.0,52271.0,-0.29999491024331576,-0.5196181808098181,0.5
2.435,TAKEOFF,abrupt,1.0,0.6098694801330566,0.0069572036154568195,0.465749591588974,0.007838397286832333,-0.015869705006480217,0.11725740134716034,-0.4471215307712555,-0.08478198200464249,2.510376214981079,-0.18299973011016846,-7.914069175720215,-0.4102763235569,51377.0,50576.0,53020.0,46098.0,0.6,0.0,0.5,-0.43082424998283386,0.622824490070343,0.4540088176727295,0.056978870183229446,-0.020770234987139702,0.17687131464481354,0.7334844470024109,0.13278694450855255,3.957084894180298,-11.63521671295166,-13.662304878234863,-0.001140820560976863,50887.0,51977.0,57564.0,46540.0,-0.3000025448675481,0.51961377298239,0.5,-0.4049231708049774,-0.5203140377998352,0.46940839290618896,-0.006948319263756275,0.00296014198102057,0.12911450862884521,0.16410492360591888,-0.5384793281555176,1.0454652309417725,-0.02445846050977707,9.16867446899414,-0.6475206017494202,54286.0,50350.0,52273.0,51868.0,-0.29999491024331576,-0.5196181808098181,0.5
2.456,TAKEOFF,abrupt,1.0,0.6098694801330566,0.0069572036154568195,0.465749591588974,0.002661961829289794,-0.0022941473871469498,0.10848816484212875,-0.47781193256378174,0.6552899479866028,2.5444931983947754,1.1966023445129395,-13.263725280761719,0.3766687512397766,50470.0,50968.0,53769.0,45147.0,0.6,0.0,0.5,-0.43082424998283386,0.622824490070343,0.4540088176727295,0.05770740285515785,-0.020007772371172905,0.15208831429481506,0.23980067670345306,0.6497789025306702,3.9311633110046387,-13.355973243713379,-11.488893508911133,-1.3036984205245972,50403.0,51817.0,57884.0,46711.0,-0.3000025448675481,0.51961377298239,0.5,-0.4049231708049774,-0.5203140377998352,0.46940839290618896,-0.02166236937046051,0.031141504645347595,0.11513214558362961,-0.40938955545425415,-0.6620184183120728,1.0611951351165771,-8.813363075256348,-9.407716751098633,-1.461167812347412,53029.0,50250.0,53604.0,52139.0,-0.29999491024331576,-0.5196181808098181,0.5
2.475,TAKEOFF,abrupt,1.0,0.6070732474327087,0.0069818957708776,0.4796256124973297,0.002661961829289794,-0.0022941473871469498,0.10848816484212875,-0.47781193256378174,0.6552899479866028,2.5444931983947754,1.1966023445129395,-13.263725280761719,0.3766687512397766,50470.0,50968.0,53769.0,45147.0,0.6,0.0,0.5,-0.43082424998283386,0.622824490070343,0.4540088176727295,0.05770740285515785,-0.020007772371172905,0.15208831429481506,0.23980067670345306,0.6497789025306702,3.9311633110046387,-13.355973243713379,-11.488893508911133,-1.3036984205245972,50403.0,51817.0,57884.0,46711.0,-0.3000025448675481,0.51961377298239,0.5,-0.4049231708049774,-0.5203140377998352,0.46940839290618896,-0.02166236937046051,0.031141504645347595,0.11513214558362961,-0.40938955545425415,-0.6620184183120728,1.0611951351165771,-8.813363075256348,-9.407716751098633,-1.461167812347412,53029.0,50250.0,53604.0,52139.0,-0.29999491024331576,-0.5196181808098181,0.5
2.495,TAKEOFF,abrupt,1.0,0.6070732474327087,0.0069818957708776,0.4796256124973297,-0.0005616954294964671,7.167671719798818e-05,0.10885213315486908,-0.48562055826187134,0.748103678226471,2.556663990020752,1.369219183921814,-10.419777870178223,0.12680894136428833,49857.0,51751.0,54193.0,43950.0,0.6,0.0,0.5,-0.4286463260650635,0.6232838034629822,0.4677051305770874,0.05770740285515785,-0.020007772371172905,0.15208831429481506,0.23980067670345306,0.6497789025306702,3.9311633110046387,-13.355973243713379,-11.488893508911133,-1.3036984205245972,50742.0,52075.0,57978.0,46882.0,-0.3000025448675481,0.51961377298239,0.5,-0.3998965919017792,-0.5210826992988586,0.4828253984451294,-0.02166236937046051,0.031141504645347595,0.11513214558362961,-0.40938955545425415,-0.6620184183120728,1.0611951351165771,-8.813363075256348,-9.407716751098633,-1.461167812347412,52554.0,50735.0,54146.0,51872.0,-0.29999491024331576,-0.5196181808098181,0.5
2.515,TAKEOFF,abrupt,1.0,0.6070732474327087,0.0069818957708776,0.4796256124973297,0.0009773423662409186,0.00010191660840064287,0.10179434716701508,-0.4460464417934418,0.8594386577606201,2.4867935180664062,0.034857284277677536,-1.8058140277862549,-1.2430212497711182,51908.0,51002.0,52218.0,45222.0,0.6,0.0,0.5,-0.4286463260650635,0.6232838034629822,0.4677051305770874,0.016382362693548203,-0.0013890594709664583,0.14801809191703796,-0.3358285129070282,1.3224589824676514,3.955970525741577,-13.476790428161621,-9.119254112243652,2.1105902194976807,51148.0,51483.0,57757.0,47642.0,-0.3000025448675481,0.51961377298239,0.5,-0.3998965919017792,-0.5210826992988586,0.4828253984451294,-0.014846451580524445,0.02598436549305916,0.10592836141586304,-0.560596227645874,-0.21184642612934113,0.9737902879714966,0.7736846804618835,-10.71720027923584,-2.693936824798584,52301.0,52105.0,54413.0,50705.0,-0.29999491024331576,-0.5196181808098181,0.5
2.535,TAKEOFF,abrupt,1.0,0.6070732474327087,0.0069818957708776,0.4796256124973297,-0.013344249688088894,0.0072740172035992146,0.09960907697677612,-0.49705973267555237,0.914326012134552,2.5205395221710205,3.2509236335754395,2.9669406414031982,-0.352207213640213,51389.0,49428.0,53087.0,46743.0,0.6,0.0,0.5,-0.4286463260650635,0.6232838034629822,0.4677051305770874,0.016382362693548203,-0.0013890594709664583,0.14801809191703796,-0.703654944896698,1.5337567329406738,3.992506980895996,-4.742733478546143,-10.305163383483887,1.5469903945922852,50922.0,51660.0,59186.0,45402.0,-0.3000025448675481,0.51961377298239,0.5,-0.3998965919017792,-0.5210826992988586,0.4828253984451294,-0.014190198853611946,0.026538867503404617,0.10147909820079803,-0.560596227645874,-0.21184642612934113,0.9737902879714966,0.7736846804618835,-10.71720027923584,-2.693936824798584,52531.0,52586.0,54173.0,50258.0,-0.29999491024331576,-0.5196181808098181,0.5
