timestamp_sec,flight_state,fault_type,fault_motor_health,cf1_X,cf1_Y,cf1_Z,cf1_VelX,cf1_VelY,cf1_VelZ,cf1_Roll,cf1_Pitch,cf1_Yaw,cf1_GyroX,cf1_GyroY,cf1_GyroZ,cf1_Motor1,cf1_Motor2,cf1_Motor3,cf1_Motor4,cf1_targ_x,cf1_targ_y,cf1_targ_z,cf2_X,cf2_Y,cf2_Z,cf2_VelX,cf2_VelY,cf2_VelZ,cf2_Roll,cf2_Pitch,cf2_Yaw,cf2_GyroX,cf2_GyroY,cf2_GyroZ,cf2_Motor1,cf2_Motor2,cf2_Motor3,cf2_Motor4,cf2_targ_x,cf2_targ_y,cf2_targ_z,cf3_X,cf3_Y,cf3_Z,cf3_VelX,cf3_VelY,cf3_VelZ,cf3_Roll,cf3_Pitch,cf3_Yaw,cf3_GyroX,cf3_GyroY,cf3_GyroZ,cf3_Motor1,cf3_Motor2,cf3_Motor3,cf3_Motor4,cf3_targ_x,cf3_targ_y,cf3_targ_z
0.009,TAKEOFF,abrupt,1.0,0.6017386317253113,0.015641633421182632,0.00168334087356925,-0.025097347795963287,-0.014024941250681877,0.005987507291138172,0.48433929681777954,0.5111647844314575,2.0627686977386475,0.11535316705703735,0.005745982751250267,0.16518612205982208,0.0,0.0,0.0,0.0,0.6,0.0,0.5,-0.4508543014526367,0.4898742735385895,0.00553847523406148,-0.011047431267797947,0.005764145869761705,0.009338212199509144,0.841425359249115,-1.0782464742660522,-2.737061023712158,-0.02875709906220436,0.1699535846710205,0.14193223416805267,0.0,0.0,0.0,0.0,-0.3000025448675481,0.51961377298239,0.5,-0.41566282510757446,-0.5217324495315552,0.004647130146622658,-0.030151600018143654,0.012527436017990112,-0.0006670959992334247,-0.14170436561107635,-0.01518929935991764,-3.361508846282959,0.14792057871818542,-0.023315759375691414,0.1401800811290741,0.0,0.0,0.0,0.0,-0.29999491024331576,-0.5196181808098181,0.5
0.03,TAKEOFF,abrupt,1.0,0.6017386317253113,0.015641633421182632,0.00168334087356925,-0.024819377809762955,-0.012260719202458858,0.0016468660905957222,0.46731334924697876,0.5576955676078796,2.117004871368408,0.025952322408556938,0.07281267642974854,-0.4291709065437317,0.0,0.0,0.0,0.0,0.6,0.0,0.5,-0.4542464315891266,0.491874098777771,0.007561746519058943,-0.012418507598340511,0.006887451745569706,0.010653972625732422,0.8323781490325928,-1.0704114437103271,-2.690451145172119,-0.06865814328193665,0.02011602558195591,-0.050446074455976486,0.0,0.0,0.0,0.0,-0.3000025448675481,0.51961377298239,0.5,-0.41566282510757446,-0.5217324495315552,0.004647130146622658,-0.030549557879567146,0.012161706574261189,-0.0022849554661661386,-0.1295856237411499,-0.01445922814309597,-3.3930511474609375,0.07499662041664124,0.1143801361322403,-0.09040936082601547,0.0,0.0,0.0,0.0,-0.29999491024331576,-0.5196181808098181,0.5
0.049,TAKEOFF,abrupt,1.0,0.6012290120124817,0.016226807609200478,0.0023844025563448668,-0.02999497763812542,-0.010792727582156658,0.011224880814552307,0.4471494257450104,0.5643292665481567,2.1663639545440674,0.13837604224681854,-0.2564632296562195,0.07671160250902176,0.0,0.0,0.0,0.0,0.6,0.0,0.5,-0.4542464315891266,0.491874098777771,0.007561746519058943,-0.012742911465466022,0.00699482811614871,0.01065876055508852,0.8306677937507629,-1.0696386098861694,-2.651549816131592,-0.15823383629322052,0.34840643405914307,0.11831939965486526,38290.0,39996.0,37058.0,40304.0,-0.3000025448675481,0.51961377298239,0.5,-0.41566282510757446,-0.5217324495315552,0.004647130146622658,-0.029716506600379944,0.012713789008557796,-0.004743385594338179,-0.13072583079338074,-0.05580485984683037,-3.45430326461792,-0.19237485527992249,0.21595720946788788,-0.06266355514526367,36948.0,40799.0,38320.0,40776.0,-0.29999491024331576,-0.5196181808098181,0.5
0.069,TAKEOFF,abrupt,1.0,0.6012290120124817,0.016226807609200478,0.0023844025563448668,-0.02999497763812542,-0.010792727582156658,0.011224880814552307,0.4414665102958679,0.559127926826477,2.207019329071045,0.06124458461999893,-0.019241638481616974,-0.04703908413648605,0.0,0.0,0.0,0.0,0.6,0.0,0.5,-0.4542464315891266,0.491874098777771,0.007561746519058943,-0.01222867239266634,0.006756396032869816,0.010579832829535007,0.8347695469856262,-1.0769875049591064,-2.603996515274048,0.4434303343296051,0.3150605261325836,0.9662017226219177,38851.0,40356.0,37225.0,40468.0,-0.3000025448675481,0.51961377298239,0.5,-0.4150908291339874,-0.5250782370567322,0.006509072612971067,-0.018531344830989838,0.010519955307245255,0.0015831475611776114,-0.13072583079338074,-0.05580485984683037,-3.45430326461792,-0.19237485527992249,0.21595720946788788,-0.06266355514526367,37505.0,41021.0,38367.0,40964.0,-0.29999491024331576,-0.5196181808098181,0.5
0.09,TAKEOFF,abrupt,1.0,0.6012290120124817,0.016226807609200478,0.0023844025563448668,-0.021163079887628555,-0.017345665022730827,0.0008931935881264508,0.476407527923584,0.4419223368167877,2.1021170616149902,-0.03259678930044174,-0.17372559010982513,-0.16913360357284546,0.0,0.0,0.0,0.0,0.6,0.0,0.5,-0.4542464315891266,0.491874098777771,0.007561746519058943,-0.0107060382142663,0.0061768777668476105,0.010541694238781929,0.8438680768013,-1.095973253250122,-2.5731184482574463,-2.608259439468384,0.9758992195129395,0.019185341894626617,39392.0,38818.0,37826.0,42626.0,-0.3000025448675481,0.51961377298239,0.5,-0.4150908291339874,-0.5250782370567322,0.006509072612971067,-0.021992193534970284,0.01450449600815773,0.0009536637808196247,-0.13970978558063507,-0.1026478111743927,-3.409723997116089,0.06854254007339478,-1.4480754137039185,-3.4078879356384277,37546.0,41941.0,40505.0,41895.0,-0.29999491024331576,-0.5196181808098181,0.5
0.109,TAKEOFF,abrupt,1.0,0.6012290120124817,0.016226807609200478,0.0023844025563448668,-0.021163079887628555,-0.017345665022730827,0.0008931935881264508,0.476407527923584,0.4419223368167877,2.1021170616149902,-0.03259678930044174,-0.17372559010982513,-0.16913360357284546,0.0,0.0,0.0,0.0,0.6,0.0,0.5,-0.4542464315891266,0.491874098777771,0.007561746519058943,-0.005514498334378004,0.0019423189805820584,0.011668073944747448,0.8452266454696655,-1.1131771802902222,-2.532073736190796,0.6994338035583496,0.3810708522796631,-0.1801747977733612,39052.0,42420.0,39775.0,41266.0,-0.3000025448675481,0.51961377298239,0.5,-0.4150908291339874,-0.5250782370567322,0.006509072612971067,-0.0216092299669981,0.014956602826714516,0.0011102616554126143,-0.13970978558063507,-0.1026478111743927,-3.409723997116089,0.06854254007339478,-1.4480754137039185,-3.4078879356384277,39077.0,42623.0,40224.0,43514.0,-0.29999491024331576,-0.5196181808098181,0.5
0.129,TAKEOFF,abrupt,1.0,0.6012290120124817,0.016226807609200478,0.0023844025563448668,-0.02024862915277481,-0.005651842802762985,-0.004643531516194344,0.39152607321739197,0.419979453086853,2.1035540103912354,0.09628276526927948,-0.07364407926797867,0.06988544762134552,0.0,0.0,0.0,0.0,0.6,0.0,0.5,-0.4547206461429596,0.4919166564941406,0.00852879136800766,-0.0005208762595430017,-0.00245376443490386,0.016940779983997345,0.8461155891418457,-1.128732442855835,-2.5041556358337402,0.9380820393562317,1.8104413747787476,0.8438565731048584,40811.0,41792.0,39154.0,42732.0,-0.3000025448675481,0.51961377298239,0.5,-0.4150908291339874,-0.5250782370567322,0.006509072612971067,-0.004866497591137886,0.007080940064042807,-0.0017256782157346606,-0.1524634212255478,-0.0995977446436882,-3.4100546836853027,-0.16131067276000977,0.6558664441108704,0.6900362968444824,39077.0,42623.0,40224.0,43514.0,-0.29999491024331576,-0.5196181808098181,0.5
0.149,TAKEOFF,abrupt,1.0,0.6028054356575012,0.015425181947648525,0.0003581626806408167,-0.029840148985385895,-0.009094544686377048,-0.005174302961677313,0.41187822818756104,0.5509250164031982,2.1711008548736572,-0.11186632513999939,-0.1827537566423416,-0.042252957820892334,0.0,0.0,0.0,0.0,0.6,0.0,0.5,-0.4547206461429596,0.4919166564941406,0.00852879136800766,0.003879236290231347,-0.00655844621360302,0.0186770036816597,0.8647727370262146,-1.127079725265503,-2.495300054550171,1.5150541067123413,-0.7297669053077698,-9.774490356445312,41031.0,42823.0,37777.0,43322.0,-0.3000025448675481,0.51961377298239,0.5,-0.4150908291339874,-0.5250782370567322,0.006509072612971067,0.002903076121583581,0.0043065836653113365,-0.0031450754031538963,-0.06698322296142578,-0.3192363679409027,-3.251080274581909,1.4082146883010864,1.9593521356582642,-1.1646008491516113,42017.0,41491.0,43448.0,43424.0,-0.29999491024331576,-0.5196181808098181,0.5
0.169,TAKEOFF,abrupt,1.0,0.6028054356575012,0.015425181947648525,0.0003581626806408167,-0.032571110874414444,-0.010161220096051693,-0.004612619057297707,0.418826699256897,0.5709501504898071,2.162389039993286,0.23919428884983063,0.016212113201618195,0.19191284477710724,0.0,0.0,0.0,0.0,0.6,0.0,0.5,-0.4547206461429596,0.4919166564941406,0.00852879136800766,0.007497263140976429,-0.01043381541967392,0.019616957753896713,0.9023304581642151,-1.0890713930130005,-2.739995002746582,-4.099369525909424,4.564676284790039,-25.557292938232422,38847.0,43637.0,38221.0,46206.0,-0.3000025448675481,0.51961377298239,0.5,-0.4154752492904663,-0.5224605202674866,0.005204298533499241,0.004011486191302538,0.004462164826691151,-0.003792118513956666,-0.06698322296142578,-0.3192363679409027,-3.251080274581909,1.4082146883010864,1.9593521356582642,-1.1646008491516113,42321.0,46199.0,37347.0,46437.0,-0.29999491024331576,-0.5196181808098181,0.5
0.19,TAKEOFF,abrupt,1.0,0.6028054356575012,0.015425181947648525,0.0003581626806408167,-0.03324243798851967,-0.010530191473662853,-0.004715894814580679,0.48987773060798645,0.32691165804862976,2.098097562789917,0.08623061329126358,-0.039563484489917755,-0.06339927017688751,0.0,0.0,0.0,0.0,0.6,0.0,0.5,-0.4547206461429596,0.4919166564941406,0.00852879136800766,0.030429771170020103,-0.02296125702559948,-0.0004686539468821138,0.9292373657226562,-1.3188422918319702,-3.307138681411743,8.997013092041016,-9.682550430297852,-28.490585327148438,38859.0,48680.0,35685.0,43931.0,-0.3000025448675481,0.51961377298239,0.5,-0.4154752492904663,-0.5224605202674866,0.005204298533499241,-0.0051685478538274765,0.013033883646130562,-0.006957224104553461,-0.12666648626327515,-0.20850937068462372,-3.855397939682007,4.745665073394775,1.169854998588562,-30.342082977294922,34229.0,48614.0,36677.0,51257.0,-0.29999491024331576,-0.5196181808098181,0.5
0.209,TAKEOFF,abrupt,1.0,0.6028054356575012,0.015425181947648525,0.0003581626806408167,-0.013854914344847202,-0.006978229619562626,-0.0006566003430634737,0.39365342259407043,0.43292129039764404,2.1625545024871826,0.23091676831245422,-0.041631247848272324,0.11205784976482391,39496.0,38527.0,39839.0,37016.0,0.6,0.0,0.5,-0.45006775856018066,0.48804470896720886,0.005493505857884884,0.043595701456069946,-0.033171530812978745,-0.008842777460813522,1.0465562343597412,-1.3130823373794556,-3.938950300216675,3.1904118061065674,-2.695643424987793,-18.55518913269043,41247.0,47750.0,35741.0,45783.0,-0.3000025448675481,0.51961377298239,0.5,-0.4154752492904663,-0.5224605202674866,0.005204298533499241,-0.004426729399710894,0.01341191865503788,-0.010220766998827457,-0.10005595535039902,-0.24042434990406036,-4.471131801605225,-0.36220782995224,-6.5107221603393555,-19.917251586914062,27662.0,50782.0,39425.0,51860.0,-0.29999491024331576,-0.5196181808098181,0.5
0.229,TAKEOFF,abrupt,1.0,0.6017928719520569,0.01461836788803339,0.0007738879066891968,0.002476403024047613,-0.012337887659668922,-0.004356642719358206,0.43502354621887207,0.25006943941116333,2.0369584560394287,0.247677743434906,0.9209211468696594,-0.05068991333246231,40501.0,38568.0,39873.0,37812.0,0.6,0.0,0.5,-0.45006775856018066,0.48804470896720886,0.005493505857884884,0.044815901666879654,-0.0420943945646286,-0.017044909298419952,1.075169563293457,-1.3014909029006958,-4.376060962677002,10.310615539550781,-2.8770415782928467,0.38431480526924133,46769.0,47788.0,31821.0,44794.0,-0.3000025448675481,0.51961377298239,0.5,-0.4154752492904663,-0.5224605202674866,0.005204298533499241,-0.0036258799955248833,0.013716716319322586,-0.011549231596291065,-0.07009697705507278,-0.22320690751075745,-4.888105392456055,5.311794281005859,-3.297790288925171,-13.771739959716797,36910.0,44847.0,38276.0,54288.0,-0.29999491024331576,-0.5196181808098181,0.5
0.249,TAKEOFF,abrupt,1.0,0.6017928719520569,0.01461836788803339,0.0007738879066891968,0.0054192147217690945,0.010443601757287979,-0.005537256598472595,0.42665496468544006,0.2190561294555664,1.9655040502548218,-2.8634705543518066,-2.4838924407958984,-0.20427662134170532,44259.0,41033.0,38757.0,38726.0,0.6,0.0,0.5,-0.45006775856018066,0.48804470896720886,0.005493505857884884,0.047854386270046234,-0.045981571078300476,-0.018696000799536705,1.0851634740829468,-1.2823675870895386,-4.4781975746154785,-0.4853818416595459,1.5349706411361694,11.001659393310547,44945.0,46903.0,38536.0,44615.0,-0.3000025448675481,0.51961377298239,0.5,-0.4154752492904663,-0.5224605202674866,0.005204298533499241,-0.003588566556572914,0.010787944309413433,-0.011711694300174713,-0.08725611865520477,-0.21978960931301117,-5.165529251098633,11.777098655700684,7.075839519500732,-10.020049095153809,43052.0,43160.0,39888.0,52069.0,-0.29999491024331576,-0.5196181808098181,0.5
0.27,TAKEOFF,abrupt,1.0,0.6017928719520569,0.01461836788803339,0.0007738879066891968,0.006481992080807686,0.020961791276931763,-0.0051598576828837395,0.2765282392501831,0.3879840672016144,1.9751821756362915,-4.249892234802246,-0.4722491502761841,-7.62624454498291,43722.0,41340.0,39452.0,40684.0,0.6,0.0,0.5,-0.45006775856018066,0.48804470896720886,0.005493505857884884,0.04894215241074562,-0.046854957938194275,-0.015109498985111713,1.1285828351974487,-1.1758906841278076,-4.264466285705566,-6.322279453277588,6.081692218780518,7.283751010894775,45617.0,41242.0,38090.0,50090.0,-0.3000025448675481,0.51961377298239,0.5,-0.4160444736480713,-0.5217013955116272,0.004040761850774288,-0.0027294026222079992,0.01094830222427845,-0.008435362949967384,-0.06144719943404198,-0.2673788070678711,-5.411556243896484,4.523893356323242,0.2364407628774643,-16.320310592651367,42722.0,46686.0,40291.0,50212.0,-0.29999491024331576,-0.5196181808098181,0.5
0.29,TAKEOFF,abrupt,1.0,0.6031911373138428,0.015701886266469955,-0.0002042412234004587,-0.012748638167977333,0.004500633105635643,0.00016934183076955378,0.2506575286388397,0.3979906141757965,1.8119350671768188,-1.7146587371826172,-1.7080901861190796,0.10124453902244568,38237.0,41742.0,45742.0,41191.0,0.6,0.0,0.5,-0.45006775856018066,0.48804470896720886,0.005493505857884884,0.05133916437625885,-0.04843142256140709,-0.01596786268055439,1.0762661695480347,-1.2020999193191528,-4.092840671539307,-4.386617660522461,1.5316814184188843,10.266436576843262,44898.0,45084.0,40429.0,47215.0,-0.3000025448675481,0.51961377298239,0.5,-0.4160444736480713,-0.5217013955116272,0.004040761850774288,0.0365549698472023,-0.019831497222185135,0.003391475882381201,0.2829355299472809,-0.5445770621299744,-5.758881092071533,-9.050841331481934,-9.116829872131348,-20.13739013671875,35102.0,48475.0,45809.0,49521.0,-0.29999491024331576,-0.5196181808098181,0.5
0.31,TAKEOFF,abrupt,1.0,0.6031911373138428,0.015701886266469955,-0.0002042412234004587,-0.004954359494149685,0.0036585452035069466,0.010217322036623955,0.2285790741443634,0.34809747338294983,1.543623447418213,6.277717113494873,9.001497268676758,-4.851739883422852,43693.0,42757.0,41506.0,41608.0,0.6,0.0,0.5,-0.4498564898967743,0.48803508281707764,0.004737021867185831,0.055250659584999084,-0.052376888692379,-0.01441548764705658,1.071632742881775,-1.1864796876907349,-3.868901491165161,7.447784900665283,-5.66906213760376,6.301601409912109,47344.0,46642.0,39108.0,45624.0,-0.3000025448675481,0.51961377298239,0.5,-0.4160444736480713,-0.5217013955116272,0.004040761850774288,0.04058466851711273,-0.04261310398578644,0.013526308350265026,0.23481988906860352,-0.5592008233070374,-6.117242813110352,14.639074325561523,15.653355598449707,-15.102490425109863,47856.0,48873.0,31864.0,49269.0,-0.29999491024331576,-0.5196181808098181,0.5
0.33,TAKEOFF,abrupt,1.0,0.6059973239898682,0.01624203845858574,0.0010913065634667873,-0.0071360403671860695,0.001492101582698524,0.004690072499215603,0.42581015825271606,0.21356230974197388,0.8898856043815613,-0.7936903834342957,-3.2628989219665527,-40.47766876220703,37345.0,45476.0,42242.0,45878.0,0.6,0.0,0.5,-0.4498564898967743,0.48803508281707764,0.004737021867185831,0.04757838323712349,-0.04659973084926605,-0.003517109900712967,1.0678352117538452,-0.9804094433784485,-3.662262201309204,-6.461953163146973,8.965361595153809,13.92402458190918,46787.0,42712.0,41507.0,48322.0,-0.3000025448675481,0.51961377298239,0.5,-0.4160444736480713,-0.5217013955116272,0.004040761850774288,0.04753803834319115,-0.04651511833071709,0.014181388542056084,0.36688491702079773,-0.7100738883018494,-6.316004753112793,-14.779526710510254,-15.399887084960938,1.1205615997314453,40999.0,47293.0,44254.0,49521.0,-0.29999491024331576,-0.5196181808098181,0.5
0.349,TAKEOFF,abrupt,1.0,0.6059973239898682,0.01624203845858574,0.0010913065634667873,-0.01674630306661129,0.009732719510793686,0.008754545822739601,0.1788267344236374,0.43949487805366516,-0.7950243353843689,7.233291149139404,12.644274711608887,-54.82986068725586,40881.0,49304.0,36834.0,45577.0,0.6,0.0,0.5,-0.4498564898967743,0.48803508281707764,0.004737021867185831,0.04279957339167595,-0.04190078377723694,0.006724331993609667,0.9473451375961304,-0.9697456359863281,-3.348329544067383,1.836520791053772,-3.1659650802612305,17.89032745361328,48305.0,44046.0,41818.0,46798.0,-0.3000025448675481,0.51961377298239,0.5,-0.4160444736480713,-0.5217013955116272,0.004040761850774288,0.047955550253391266,-0.04577532410621643,0.0166856050491333,0.23528055846691132,-0.597730815410614,-6.248158931732178,9.686429023742676,12.271585464477539,20.09137535095215,47929.0,47819.0,40109.0,46972.0,-0.29999491024331576,-0.5196181808098181,0.5
0.369,TAKEOFF,abrupt,1.0,0.6059973239898682,0.01624203845858574,0.0010913065634667873,-0.018820129334926605,0.007390712387859821,0.0038953872863203287,0.3280591368675232,0.3575088083744049,-2.943429946899414,-2.749925136566162,-5.05131721496582,-36.48835372924805,41655.0,46636.0,39537.0,47936.0,0.6,0.0,0.5,-0.4498564898967743,0.48803508281707764,0.004737021867185831,0.04590016230940819,-0.04538944363594055,0.008941841311752796,0.9852207899093628,-0.8848223090171814,-2.986786127090454,-0.8388007879257202,2.717294931411743,18.07207679748535,48305.0,44046.0,41818.0,46798.0,-0.3000025448675481,0.51961377298239,0.5,-0.4080345630645752,-0.5317191481590271,0.01050279475748539,0.0482633151113987,-0.04459323734045029,0.029253121465444565,0.3190947473049164,-0.6636919379234314,-5.8327155113220215,-12.067776679992676,-16.00064468383789,28.400007247924805,44587.0,44465.0,45729.0,48898.0,-0.29999491024331576,-0.5196181808098181,0.5
0.389,TAKEOFF,abrupt,1.0,0.6101755499839783,0.01864481158554554,0.0004834738792851567,0.0213815625756979,0.0032013303134590387,0.0007692211656831205,0.6889397501945496,-0.002893980825319886,-4.148502826690674,-10.589466094970703,-9.166421890258789,-8.078585624694824,42064.0,47939.0,41512.0,47709.0,0.6,0.0,0.5,-0.4498564898967743,0.48803508281707764,0.004737021867185831,0.04873582348227501,-0.04886532574892044,0.006228443700820208,0.9882906675338745,-0.9123547673225403,-2.679365634918213,-1.8966528177261353,0.2890090048313141,13.061878204345703,47895.0,45951.0,42462.0,46084.0,-0.3000025448675481,0.51961377298239,0.5,-0.4080345630645752,-0.5317191481590271,0.01050279475748539,0.05029509216547012,-0.043585095554590225,0.024975618347525597,0.12465010583400726,-0.3630432188510895,-5.226224899291992,6.924520492553711,9.409562110900879,30.366422653198242,53037.0,39881.0,45023.0,45262.0,-0.29999491024331576,-0.5196181808098181,0.5
0.409,TAKEOFF,abrupt,1.0,0.6101755499839783,0.01864481158554554,0.0004834738792851567,0.0030813582707196474,-0.020101048052310944,-0.015143980272114277,0.5319241881370544,0.1709306836128235,-4.327090740203857,0.5867717266082764,-1.1535195112228394,12.49947452545166,47508.0,46631.0,44018.0,43058.0,0.6,0.0,0.5,-0.44552692770957947,0.4857940971851349,0.003895075060427189,0.058879561722278595,-0.04668617993593216,-0.003938979469239712,0.9035936594009399,-1.002133846282959,-2.4442310333251953,-4.514913082122803,-1.7837483882904053,17.452728271484375,47397.0,45961.0,43285.0,46779.0,-0.3000025448675481,0.51961377298239,0.5,-0.4080345630645752,-0.5317191481590271,0.01050279475748539,0.03494798392057419,-0.0371517613530159,0.01358663197606802,0.2624991238117218,-0.5157977938652039,-4.612880229949951,1.2233068943023682,-4.5532026290893555,34.937801361083984,47860.0,46373.0,45630.0,47332.0,-0.29999491024331576,-0.5196181808098181,0.5
0.429,TAKEOFF,abrupt,1.0,0.6101755499839783,0.01864481158554554,0.0004834738792851567,-0.0013125533005222678,-0.01683095656335354,-0.004326548893004656,0.6283552050590515,0.06918802857398987,-3.5222175121307373,-3.897446632385254,1.1700506210327148,32.243526458740234,47356.0,47249.0,45382.0,43014.0,0.6,0.0,0.5,-0.44552692770957947,0.4857940971851349,0.003895075060427189,0.062186043709516525,-0.04988282173871994,-0.002789509017020464,0.8845832943916321,-0.8972985744476318,-2.1095216274261475,7.364220142364502,-9.218010902404785,14.937291145324707,49244.0,47548.0,43219.0,45268.0,-0.3000025448675481,0.51961377298239,0.5,-0.4080345630645752,-0.5317191481590271,0.01050279475748539,0.04757212474942207,-0.04340098798274994,0.010991041548550129,0.12936823070049286,-0.3877438008785248,-3.8112142086029053,-4.151757717132568,-9.886574745178223,32.25889205932617,47539.0,46315.0,47551.0,47183.0,-0.29999491024331576,-0.5196181808098181,0.5
0.449,TAKEOFF,abrupt,1.0,0.6076134443283081,0.020280813798308372,0.00017488830781076103,0.0009147418895736337,-0.010108820162713528,-0.008837630972266197,0.5602288842201233,0.1003136932849884,-2.842681407928467,4.971947193145752,-1.9059278964996338,32.052791595458984,47274.0,44526.0,47037.0,45430.0,0.6,0.0,0.5,-0.44552692770957947,0.4857940971851349,0.003895075060427189,0.036691393703222275,-0.03312515839934349,0.011490647681057453,0.8026562929153442,-0.5050517320632935,-1.732627272605896,-0.14224380254745483,-0.5557146668434143,16.820091247558594,49862.0,47625.0,43152.0,44742.0,-0.3000025448675481,0.51961377298239,0.5,-0.4080345630645752,-0.5317191481590271,0.01050279475748539,0.03611816465854645,-0.03160449117422104,0.004067236557602882,0.12936823070049286,-0.3877438008785248,-3.8112142086029053,-4.151757717132568,-9.886574745178223,32.25889205932617,49285.0,47692.0,46482.0,46658.0,-0.29999491024331576,-0.5196181808098181,0.5
0.469,TAKEOFF,abrupt,1.0,0.6076134443283081,0.020280813798308372,0.00017488830781076103,0.0011923821875825524,-0.007343636825680733,0.0006898412830196321,0.5602288842201233,0.1003136932849884,-2.842681407928467,4.971947193145752,-1.9059278964996338,32.052791595458984,47274.0,44526.0,47037.0,45430.0,0.6,0.0,0.5,-0.44552692770957947,0.4857940971851349,0.003895075060427189,0.025193102657794952,-0.025133060291409492,0.016798902302980423,0.7500378489494324,-0.32662174105644226,-1.397113561630249,-0.567001461982727,-1.6066701412200928,12.191869735717773,48883.0,46279.0,44516.0,46882.0,-0.3000025448675481,0.51961377298239,0.5,-0.41035813093185425,-0.5290573239326477,0.00806314405053854,0.03739362955093384,-0.03213970363140106,0.004889375530183315,0.17430345714092255,-0.41268372535705566,-3.1576974391937256,-1.4617607593536377,1.1252375841140747,29.72626495361328,49414.0,47355.0,46857.0,47683.0,-0.29999491024331576,-0.5196181808098181,0.5
0.49,TAKEOFF,abrupt,1.0,0.6076134443283081,0.020280813798308372,0.00017488830781076103,-0.003347186604514718,-0.008623646572232246,0.009512998163700104,0.5397937893867493,0.12790188193321228,-1.4140969514846802,5.388994216918945,4.005060195922852,9.475421905517578,43421.0,47140.0,48698.0,45141.0,0.6,0.0,0.5,-0.44552692770957947,0.4857940971851349,0.003895075060427189,0.02237248793244362,-0.02098257839679718,0.016313815489411354,0.6744433045387268,-0.24223630130290985,-1.164037823677063,1.7614209651947021,-1.9865549802780151,6.544692516326904,49134.0,48355.0,44280.0,45873.0,-0.3000025448675481,0.51961377298239,0.5,-0.41035813093185425,-0.5290573239326477,0.00806314405053854,0.03870255500078201,-0.032725900411605835,0.006006067153066397,0.0934043750166893,-0.34612083435058594,-2.1082780361175537,3.6547913551330566,-1.5850615501403809,25.72610092163086,50960.0,47465.0,46093.0,47740.0,-0.29999491024331576,-0.5196181808098181,0.5
0.509,TAKEOFF,abrupt,1.0,0.6076134443283081,0.020280813798308372,0.00017488830781076103,-0.0042945947498083115,-0.0035429154522717,0.008753246627748013,0.5501208901405334,0.12414760887622833,-1.1785379648208618,-2.8347909450531006,-6.8585028648376465,18.13238525390625,48128.0,45640.0,45696.0,47282.0,0.6,0.0,0.5,-0.4501069188117981,0.4885050058364868,0.007694663945585489,0.022074103355407715,-0.02046671323478222,0.01931200549006462,0.6828510761260986,-0.1819402128458023,-1.0491204261779785,-0.0861116573214531,-14.990129470825195,2.3183329105377197,47169.0,49512.0,46559.0,45567.0,-0.3000025448675481,0.51961377298239,0.5,-0.41035813093185425,-0.5290573239326477,0.00806314405053854,0.039672981947660446,-0.03112149052321911,0.006366513203829527,0.1293056160211563,-0.3403293490409851,-1.6218409538269043,-1.4439209699630737,-8.173782348632812,19.250879287719727,48877.0,47747.0,48857.0,48204.0,-0.29999491024331576,-0.5196181808098181,0.5
0.529,TAKEOFF,abrupt,1.0,0.6076134443283081,0.020280813798308372,0.00017488830781076103,-0.0042945947498083115,-0.0035429154522717,0.008753246627748013,0.39714205265045166,0.18733544647693634,-0.8406445980072021,10.960700035095215,11.001565933227539,-1.4654394388198853,47119.0,47894.0,46003.0,46473.0,0.6,0.0,0.5,-0.4501069188117981,0.4885050058364868,0.007694663945585489,0.021816475316882133,-0.021779736503958702,0.02638307958841324,0.6912521719932556,0.06296355277299881,-0.9844956398010254,-8.701908111572266,-19.928058624267578,1.9677141904830933,45537.0,48823.0,48519.0,46797.0,-0.3000025448675481,0.51961377298239,0.5,-0.41035813093185425,-0.5290573239326477,0.00806314405053854,0.04087446630001068,-0.03159814327955246,0.012455099262297153,-0.007319101598113775,-0.13027438521385193,-1.3000364303588867,-4.546350002288818,-0.6749979257583618,16.67572784423828,50405.0,47151.0,47318.0,49601.0,-0.29999491024331576,-0.5196181808098181,0.5
0.549,TAKEOFF,abrupt,1.0,0.6044558882713318,0.022966669872403145,0.004375510383397341,-0.004960226826369762,0.0004873769066762179,0.021986782550811768,0.5283148288726807,0.030254321172833443,-0.7705602645874023,0.052952494472265244,-11.205504417419434,-0.7351583242416382,47088.0,46758.0,46125.0,48316.0,0.6,0.0,0.5,-0.4501069188117981,0.4885050058364868,0.007694663945585489,0.02064482495188713,-0.02358352206647396,0.02994314394891262,0.6217579245567322,0.39800867438316345,-0.9470224380493164,-5.313830852508545,-25.180866241455078,5.838543891906738,47578.0,49812.0,47540.0,45699.0,-0.3000025448675481,0.51961377298239,0.5,-0.41035813093185425,-0.5290573239326477,0.00806314405053854,0.031334616243839264,-0.01806209422647953,0.0011417287169024348,-0.007319101598113775,-0.13027438521385193,-1.3000364303588867,-4.546350002288818,-0.6749979257583618,16.67572784423828,52844.0,47257.0,46195.0,49672.0,-0.29999491024331576,-0.5196181808098181,0.5
0.569,TAKEOFF,abrupt,1.0,0.6044558882713318,0.022966669872403145,0.004375510383397341,-0.005518324673175812,0.003938858862966299,0.020739499479532242,0.4272914230823517,0.07190940529108047,-0.7461012601852417,-4.051843166351318,-0.08603836596012115,0.6845700740814209,47113.0,48336.0,47155.0,46673.0,0.6,0.0,0.5,-0.4501069188117981,0.4885050058364868,0.007694663945585489,0.01841013878583908,-0.02672797068953514,0.03240131959319115,0.5797319412231445,0.8913059234619141,-0.8425657153129578,-3.43099308013916,-32.56273651123047,5.627386093139648,46501.0,50671.0,49226.0,45007.0,-0.3000025448675481,0.51961377298239,0.5,-0.41035813093185425,-0.5290573239326477,0.00806314405053854,0.031334616243839264,-0.01806209422647953,0.0011417287169024348,-0.028927933424711227,-0.23569639027118683,-0.9199590682983398,2.67203688621521,0.965713620185852,21.344079971313477,52844.0,47257.0,46195.0,49672.0,-0.29999491024331576,-0.5196181808098181,0.5
0.589,TAKEOFF,abrupt,1.0,0.6044558882713318,0.022966669872403145,0.004375510383397341,-0.006868033204227686,0.007181926630437374,0.02586541511118412,0.3936399221420288,0.09182705730199814,-0.6827122569084167,1.895198941230774,-2.6891655921936035,-2.187187910079956,47113.0,48336.0,47155.0,46673.0,0.6,0.0,0.5,-0.4501069188117981,0.4885050058364868,0.007694663945585489,0.012886238284409046,-0.02756533958017826,0.03138566389679909,0.5797319412231445,0.8913059234619141,-0.8425657153129578,-3.43099308013916,-32.56273651123047,5.627386093139648,48680.0,51614.0,47979.0,44193.0,-0.3000025448675481,0.51961377298239,0.5,-0.41035813093185425,-0.5290573239326477,0.00806314405053854,0.031334616243839264,-0.01806209422647953,0.0011417287169024348,-0.028927933424711227,-0.23569639027118683,-0.9199590682983398,2.67203688621521,0.965713620185852,21.344079971313477,52844.0,47257.0,46195.0,49672.0,-0.29999491024331576,-0.5196181808098181,0.5
0.609,TAKEOFF,abrupt,1.0,0.6044558882713318,0.022966669872403145,0.004375510383397341,-0.008371069096028805,0.009826232679188251,0.02453252673149109,0.3936399221420288,0.09182705730199814,-0.6827122569084167,1.895198941230774,-2.6891655921936035,-2.187187910079956,46588.0,47747.0,47590.0,48291.0,0.6,0.0,0.5,-0.45045650005340576,0.485883891582489,0.009733698330819607,0.005674595013260841,-0.028690600767731667,0.03209519013762474,0.5472152829170227,2.345543384552002,-0.5947168469429016,9.000467300415039,-42.861534118652344,9.699939727783203,47785.0,52864.0,49663.0,42742.0,-0.3000025448675481,0.51961377298239,0.5,-0.40432223677635193,-0.531861424446106,0.008390948176383972,0.03543565049767494,-0.019059674814343452,0.006824803538620472,-0.028927933424711227,-0.23569639027118683,-0.9199590682983398,2.67203688621521,0.965713620185852,21.344079971313477,51396.0,45761.0,48951.0,50911.0,-0.29999491024331576,-0.5196181808098181,0.5
0.629,TAKEOFF,abrupt,1.0,0.6044558882713318,0.022966669872403145,0.004375510383397341,-0.008371069096028805,0.009826232679188251,0.02453252673149109,0.339493066072464,0.12461728602647781,-0.6524444222450256,4.658848285675049,-1.2179492712020874,8.324235916137695,46588.0,47747.0,47590.0,48291.0,0.6,0.0,0.5,-0.45045650005340576,0.485883891582489,0.009733698330819607,-0.004082975909113884,-0.030557207763195038,0.035269495099782944,0.7774543166160583,3.2448928356170654,-0.46439316868782043,1.4126828908920288,-32.01647186279297,1.1361881494522095,47301.0,50807.0,49923.0,47051.0,-0.3000025448675481,0.51961377298239,0.5,-0.40432223677635193,-0.531861424446106,0.008390948176383972,0.02056286297738552,-0.002959452336654067,0.004512427374720573,-0.3015079200267792,-0.08104126155376434,-0.011498318053781986,-1.8159887790679932,-0.4823557436466217,17.817014694213867,52348.0,48768.0,48408.0,49100.0,-0.29999491024331576,-0.5196181808098181,0.5
0.65,TAKEOFF,abrupt,1.0,0.6044558882713318,0.022966669872403145,0.004375510383397341,-0.008784363977611065,0.008640117943286896,0.027132956311106682,0.42230290174484253,0.08149148523807526,-0.5310462713241577,-9.27331829071045,-9.138835906982422,4.5852837562561035,49077.0,47195.0,47977.0,46850.0,0.6,0.0,0.5,-0.45045650005340576,0.485883891582489,0.009733698330819607,-0.016216406598687172,-0.03328068554401398,0.04147034138441086,0.795372724533081,3.8861584663391113,-0.4681950807571411,-3.372751235961914,-39.15814971923828,-0.0382881686091423,46084.0,54277.0,51076.0,43063.0,-0.3000025448675481,0.51961377298239,0.5,-0.40432223677635193,-0.531861424446106,0.008390948176383972,0.020803654566407204,-0.0019204297568649054,0.004974030889570713,-0.08793199807405472,0.39314350485801697,0.5965710878372192,4.412711143493652,-12.16301441192627,10.056252479553223,51220.0,50585.0,51021.0,48577.0,-0.29999491024331576,-0.5196181808098181,0.5
0.669,TAKEOFF,abrupt,1.0,0.6044558882713318,0.022966669872403145,0.004375510383397341,0.004519534297287464,0.009291160851716995,0.007428418844938278,0.2872856557369232,0.07475584745407104,-0.419973760843277,1.257611870765686,-5.291227340698242,14.086447715759277,52532.0,46237.0,47467.0,47174.0,0.6,0.0,0.5,-0.45045650005340576,0.485883891582489,0.009733698330819607,-0.03033578023314476,-0.035859864205121994,0.04279356822371483,0.6545110940933228,4.716549873352051,-0.46787866950035095,-19.500869750976562,-38.93673324584961,3.505330801010132,45125.0,53422.0,52673.0,44566.0,-0.3000025448675481,0.51961377298239,0.5,-0.4058367908000946,-0.5282124876976013,0.0075756097212433815,0.021618833765387535,0.00010237299284199253,0.011564520187675953,-0.10486330091953278,0.5039929151535034,0.7114110589027405,-5.342588901519775,-2.716569423675537,4.622189998626709,51650.0,48620.0,50346.0,52045.0,-0.29999491024331576,-0.5196181808098181,0.5
0.689,TAKEOFF,abrupt,1.0,0.6062314510345459,0.025476792827248573,0.004419406410306692,0.0044097560457885265,0.008136475458741188,0.006082375068217516,0.2872856557369232,0.07475584745407104,-0.419973760843277,1.257611870765686,-5.291227340698242,14.086447715759277,52532.0,46237.0,47467.0,47174.0,0.6,0.0,0.5,-0.45045650005340576,0.485883891582489,0.009733698330819607,-0.04835262522101402,-0.03769410401582718,0.05485864728689194,0.15461847186088562,5.465687274932861,-0.37360554933547974,-31.518840789794922,-24.662656784057617,7.778059482574463,46014.0,51788.0,52851.0,46460.0,-0.3000025448675481,0.51961377298239,0.5,-0.4058367908000946,-0.5282124876976013,0.0075756097212433815,0.02134406566619873,0.0014669642550870776,0.014942720532417297,-0.17272543907165527,1.134002923965454,0.806773841381073,10.525046348571777,-30.79422378540039,2.89575457572937,50498.0,53660.0,52398.0,48100.0,-0.29999491024331576,-0.5196181808098181,0.5
0.709,TAKEOFF,abrupt,1.0,0.6062314510345459,0.025476792827248573,0.004419406410306692,0.004193872679024935,0.007171099539846182,0.015856269747018814,0.307925820350647,0.010253575630486012,-0.1895785927772522,6.059054374694824,-14.030600547790527,21.786367416381836,49584.0,45008.0,53287.0,46801.0,0.6,0.0,0.5,-0.45045650005340576,0.485883891582489,0.009733698330819607,-0.07055908441543579,-0.03545952960848808,0.07156886160373688,-0.44814038276672363,5.885472297668457,-0.19078773260116577,-22.216508865356445,-6.659070014953613,8.883763313293457,47040.0,51927.0,52400.0,46240.0,-0.3000025448675481,0.51961377298239,0.5,-0.4058367908000946,-0.5282124876976013,0.0075756097212433815,0.01848869025707245,0.00223727198317647,0.02237889915704727,0.047948841005563736,1.8429070711135864,0.9059881567955017,12.244234085083008,-41.91755676269531,7.132264614105225,50492.0,53717.0,53319.0,48049.0,-0.29999491024331576,-0.5196181808098181,0.5
0.73,TAKEOFF,abrupt,1.0,0.6062314510345459,0.025476792827248573,0.004419406410306692,0.004193872679024935,0.007171099539846182,0.015856269747018814,0.4500822126865387,0.09415088593959808,0.2617895007133484,15.461503982543945,-5.441650390625,26.820423126220703,54049.0,44107.0,51490.0,45234.0,0.6,0.0,0.5,-0.45499035716056824,0.4823050796985626,0.014973442070186138,-0.09194567799568176,-0.036142684519290924,0.07643702626228333,-0.7024996876716614,6.008223533630371,-0.02231636643409729,8.901515007019043,6.638935089111328,11.090482711791992,49529.0,53654.0,51003.0,43919.0,-0.3000025448675481,0.51961377298239,0.5,-0.4058367908000946,-0.5282124876976013,0.0075756097212433815,0.013795983977615833,0.002564209047704935,0.03033435344696045,0.047948841005563736,1.8429070711135864,0.9059881567955017,12.244234085083008,-41.91755676269531,7.132264614105225,50564.0,54906.0,53847.0,46823.0,-0.29999491024331576,-0.5196181808098181,0.5
0.749,TAKEOFF,abrupt,1.0,0.6062314510345459,0.025476792827248573,0.004419406410306692,-0.0016675526276230812,0.018215857446193695,0.020173192024230957,0.4500822126865387,0.09415088593959808,0.2617895007133484,15.461503982543945,-5.441650390625,26.820423126220703,54049.0,44107.0,51490.0,45234.0,0.6,0.0,0.5,-0.45499035716056824,0.4823050796985626,0.014973442070186138,-0.11327706277370453,-0.03532370924949646,0.08237797021865845,-0.3471571207046509,5.741076946258545,0.10276790708303452,33.798553466796875,37.896915435791016,9.858283042907715,52745.0,53227.0,47912.0,45210.0,-0.3000025448675481,0.51961377298239,0.5,-0.4058367908000946,-0.5282124876976013,0.0075756097212433815,0.006423751823604107,0.0020935931243002415,0.03773454204201698,0.5571749210357666,3.1921145915985107,1.1440948247909546,21.431228637695312,-2.400312662124634,4.8378376960754395,53472.0,53403.0,51359.0,49505.0,-0.29999491024331576,-0.5196181808098181,0.5
0.771,TAKEOFF,abrupt,1.0,0.6062314510345459,0.025476792827248573,0.004419406410306692,0.0038862016517668962,0.017163420096039772,0.009070794098079205,0.6039875745773315,0.20278656482696533,0.8660517930984497,16.103757858276367,10.535714149475098,29.020275115966797,55198.0,45707.0,51231.0,43513.0,0.6,0.0,0.5,-0.45499035716056824,0.4823050796985626,0.014973442070186138,-0.13106639683246613,-0.03589724749326706,0.09308619052171707,0.34294795989990234,4.941690921783447,0.2380034178495407,28.221511840820312,45.799537658691406,9.438860893249512,52294.0,52429.0,48847.0,46612.0,-0.3000025448675481,0.51961377298239,0.5,-0.3979441821575165,-0.5316984057426453,0.012126602232456207,0.034232791513204575,-0.01794428564608097,0.055742256343364716,0.7593808770179749,3.0857744216918945,1.3411149978637695,-2.45133113861084,-3.6669702529907227,7.08645486831665,51859.0,52614.0,53518.0,50213.0,-0.29999491024331576,-0.5196181808098181,0.5
0.789,TAKEOFF,abrupt,1.0,0.6062314510345459,0.025476792827248573,0.004419406410306692,0.0038862016517668962,0.017163420096039772,0.009070794098079205,1.0183652639389038,0.005249265115708113,1.4165254831314087,22.066547393798828,16.958410263061523,26.047887802124023,55229.0,45490.0,51965.0,44965.0,0.6,0.0,0.5,-0.45499035716056824,0.4823050796985626,0.014973442070186138,-0.14652657508850098,-0.03832489252090454,0.1023624986410141,0.8104208707809448,4.037047863006592,0.43987399339675903,9.611682891845703,39.061038970947266,9.576236724853516,51501.0,53171.0,50151.0,45843.0,-0.3000025448675481,0.51961377298239,0.5,-0.3979441821575165,-0.5316984057426453,0.012126602232456207,0.004354412201792002,0.00808399822562933,0.07284492254257202,0.6010115742683411,3.137544870376587,1.445167899131775,-12.774744987487793,0.3175569176673889,8.150383949279785,51837.0,51992.0,53901.0,51041.0,-0.29999491024331576,-0.5196181808098181,0.5
0.809,TAKEOFF,abrupt,1.0,0.6068682670593262,0.02879638411104679,0.004462361801415682,0.004394446965306997,0.009204557165503502,0.011956384405493736,1.9203490018844604,0.09017878025770187,2.341423749923706,16.471561431884766,-14.43824577331543,22.760927200317383,54152.0,49993.0,53401.0,40974.0,0.6,0.0,0.5,-0.45499035716056824,0.4823050796985626,0.014973442070186138,-0.1585194170475006,-0.04176080599427223,0.11087757349014282,0.8283025622367859,3.21844482421875,0.6639426946640015,-21.61549186706543,46.043704986572266,13.851727485656738,50729.0,50197.0,51810.0,49162.0,-0.3000025448675481,0.51961377298239,0.5,-0.3979441821575165,-0.5316984057426453,0.012126602232456207,-0.008745967410504818,0.0029998417012393475,0.09050412476062775,0.2630194127559662,3.147634744644165,1.6003105640411377,-20.742027282714844,5.854862213134766,8.089844703674316,51635.0,51238.0,54362.0,51879.0,-0.29999491024331576,-0.5196181808098181,0.5
0.829,TAKEOFF,abrupt,1.0,0.6068682670593262,0.02879638411104679,0.004462361801415682,0.003866590093821287,-0.004504452925175428,0.013652454130351543,2.2422289848327637,0.40027034282684326,2.785490036010742,27.047224044799805,-13.885586738586426,17.37806510925293,56028.0,48683.0,51044.0,45741.0,0.6,0.0,0.5,-0.46239861845970154,0.47752392292022705,0.022757044062018394,-0.14738085865974426,-0.05229266732931137,0.10252538323402405,0.367437481880188,2.0882532596588135,0.9345186948776245,-47.60062789916992,50.854610443115234,11.59738826751709,51454.0,47393.0,54031.0,50126.0,-0.3000025448675481,0.51961377298239,0.5,-0.3979441821575165,-0.5316984057426453,0.012126602232456207,-0.020459361374378204,0.000761719886213541,0.1087498664855957,-0.17713573575019836,2.9738051891326904,1.750067949295044,-16.089065551757812,14.979212760925293,9.542272567749023,52982.0,51470.0,53487.0,51544.0,-0.29999491024331576,-0.5196181808098181,0.5
0.849,TAKEOFF,abrupt,1.0,0.6068682670593262,0.02879638411104679,0.004462361801415682,0.030180281028151512,-0.01549008022993803,-0.005560002289712429,2.8325328826904297,0.44961217045783997,2.9893245697021484,35.48585510253906,-11.306334495544434,12.303848266601562,55590.0,52709.0,51339.0,43639.0,0.6,0.0,0.5,-0.46239861845970154,0.47752392292022705,0.022757044062018394,-0.13914349675178528,-0.05818604677915573,0.10586027801036835,-0.5562394261360168,0.9882034659385681,1.1380534172058105,-50.79338073730469,41.3549919128418,11.03669548034668,50496.0,48267.0,54597.0,50650.0,-0.3000025448675481,0.51961377298239,0.5,-0.3979441821575165,-0.5316984057426453,0.012126602232456207,-0.031174521893262863,0.0008092143689282238,0.12937086820602417,-0.5198227167129517,2.6255943775177,1.9603246450424194,-14.252449035644531,17.705799102783203,10.434432029724121,53085.0,50531.0,53817.0,52158.0,-0.29999491024331576,-0.5196181808098181,0.5
0.869,TAKEOFF,abrupt,1.0,0.6068682670593262,0.02879638411104679,0.004462361801415682,0.030180281028151512,-0.01549008022993803,-0.005560002289712429,3.5048274993896484,0.6631431579589844,3.2264351844787598,37.77223205566406,5.016354560852051,12.370443344116211,58233.0,52583.0,48459.0,44772.0,0.6,0.0,0.5,-0.46239861845970154,0.47752392292022705,0.022757044062018394,-0.13258089125156403,-0.05768466368317604,0.11768282949924469,-1.4465783834457397,0.14799503982067108,1.305801510810852,-28.357032775878906,22.487836837768555,10.450299263000488,50998.0,51595.0,54154.0,47912.0,-0.3000025448675481,0.51961377298239,0.5,-0.3985794186592102,-0.5305721163749695,0.023579804226756096,-0.01699811778962612,-0.013726121746003628,0.15585580468177795,-0.5198227167129517,2.6255943775177,1.9603246450424194,-14.252449035644531,17.705799102783203,10.434432029724121,53085.0,50531.0,53817.0,52158.0,-0.29999491024331576,-0.5196181808098181,0.5
0.89,TAKEOFF,abrupt,1.0,0.6068682670593262,0.02879638411104679,0.004462361801415682,0.02878938987851143,-0.026965394616127014,-0.006443618331104517,4.267452239990234,0.572401225566864,3.4535396099090576,39.934810638427734,24.53044891357422,12.671476364135742,59434.0,51198.0,48147.0,46609.0,0.6,0.0,0.5,-0.46239861845970154,0.47752392292022705,0.022757044062018394,-0.13164687156677246,-0.05159347504377365,0.13170723617076874,-1.8685076236724854,-0.3328859210014343,1.4944437742233276,6.090125560760498,16.137170791625977,8.431925773620605,53694.0,53268.0,51987.0,45669.0,-0.3000025448675481,0.51961377298239,0.5,-0.3985794186592102,-0.5305721163749695,0.023579804226756096,-0.02557089552283287,-0.0080844322219491,0.17853900790214539,-0.812793493270874,1.3591010570526123,2.2649106979370117,5.1083664894104,24.842329025268555,7.45050573348999,53816.0,50081.0,52775.0,52515.0,-0.29999491024331576,-0.5196181808098181,0.5
0.909,TAKEOFF,abrupt,1.0,0.6091822385787964,0.026514807716012,0.004679432138800621,0.02878938987851143,-0.026965394616127014,-0.006443618331104517,4.267452239990234,0.572401225566864,3.4535396099090576,39.934810638427734,24.53044891357422,12.671476364135742,59434.0,51198.0,48147.0,46609.0,0.6,0.0,0.5,-0.46239861845970154,0.47752392292022705,0.022757044062018394,-0.13062311708927155,-0.044399578124284744,0.14199694991111755,-1.647432565689087,-0.6625396013259888,1.63023042678833,25.968734741210938,18.506399154663086,8.253911972045898,54959.0,53950.0,50347.0,45692.0,-0.3000025448675481,0.51961377298239,0.5,-0.3985794186592102,-0.5305721163749695,0.023579804226756096,-0.03226945549249649,-0.005521863233298063,0.19323769211769104,-0.812793493270874,1.3591010570526123,2.2649106979370117,5.1083664894104,24.842329025268555,7.45050573348999,56148.0,52335.0,50626.0,49915.0,-0.29999491024331576,-0.5196181808098181,0.5
0.93,TAKEOFF,abrupt,1.0,0.6091822385787964,0.026514807716012,0.004679432138800621,0.004250335041433573,-0.061223916709423065,0.004704175516963005,5.0950446128845215,0.2961534559726715,3.7348875999450684,30.720626831054688,17.436298370361328,15.437870979309082,56609.0,51915.0,53225.0,44792.0,0.6,0.0,0.5,-0.4760325253009796,0.4720010757446289,0.03310198336839676,-0.15455888211727142,-0.04072267562150955,0.16646234691143036,-0.9561557769775391,-0.8834607005119324,1.774923324584961,33.89083480834961,19.403688430786133,6.528956413269043,54108.0,54880.0,50416.0,45874.0,-0.3000025448675481,0.51961377298239,0.5,-0.3985794186592102,-0.5305721163749695,0.023579804226756096,-0.03585214540362358,0.001650937949307263,0.209264874458313,0.28485608100891113,0.5222808718681335,2.6477437019348145,52.115013122558594,16.70212173461914,12.366307258605957,57563.0,53596.0,49100.0,48136.0,-0.29999491024331576,-0.5196181808098181,0.5
0.95,TAKEOFF,abrupt,1.0,0.6091822385787964,0.026514807716012,0.004679432138800621,0.004250335041433573,-0.061223916709423065,0.004704175516963005,5.642420768737793,0.06609085947275162,4.053013801574707,11.981240272521973,-14.067407608032227,11.529789924621582,55642.0,53110.0,53976.0,45411.0,0.6,0.0,0.5,-0.4760325253009796,0.4720010757446289,0.03310198336839676,-0.1506359726190567,-0.03602829948067665,0.18133051693439484,-0.3498060405254364,-1.2031898498535156,1.9076757431030273,23.96224021911621,7.684614658355713,6.547743797302246,52590.0,55337.0,52378.0,45211.0,-0.3000025448675481,0.51961377298239,0.5,-0.3985794186592102,-0.5305721163749695,0.023579804226756096,-0.038768470287323,0.0027030769269913435,0.21901068091392517,1.2514300346374512,0.2553011178970337,2.898465394973755,38.19908905029297,7.915782451629639,12.296773910522461,56306.0,53797.0,51220.0,47886.0,-0.29999491024331576,-0.5196181808098181,0.5
0.969,TAKEOFF,abrupt,1.0,0.6091822385787964,0.026514807716012,0.004679432138800621,0.00994938611984253,-0.07450039684772491,-0.020964834839105606,4.828712463378906,0.8145691752433777,4.2097063064575195,-55.67094802856445,-21.48518943786621,7.252608299255371,53594.0,51876.0,56686.0,50571.0,0.6,0.0,0.5,-0.4760325253009796,0.4720010757446289,0.03310198336839676,-0.14486639201641083,-0.03374413028359413,0.20003336668014526,-0.07339276373386383,-1.338510274887085,2.0384838581085205,1.337605357170105,3.8613204956054688,5.090632915496826,50749.0,52375.0,53913.0,49293.0,-0.3000025448675481,0.51961377298239,0.5,-0.39821410179138184,-0.5311015248298645,0.045038852840662,-0.01828722283244133,-0.00957765057682991,0.22310002148151398,1.9328649044036865,-0.010130594484508038,3.175067901611328,11.659138679504395,-1.4337269067764282,11.760931015014648,55732.0,52838.0,52096.0,48805.0,-0.29999491024331576,-0.5196181808098181,0.5
0.989,TAKEOFF,abrupt,1.0,0.6091822385787964,0.026514807716012,0.004679432138800621,0.013680879957973957,-0.09211470931768417,-0.020485712215304375,3.722313642501831,1.23955237865448,4.229203701019287,-67.26663208007812,-22.014476776123047,4.371253490447998,53188.0,52994.0,56829.0,50862.0,0.6,0.0,0.5,-0.4760325253009796,0.4720010757446289,0.03310198336839676,-0.14926767349243164,-0.027111085131764412,0.2160312980413437,-0.2527804970741272,-1.3998706340789795,2.151965379714966,-17.502565383911133,10.677842140197754,3.243952512741089,50749.0,52375.0,53913.0,49293.0,-0.3000025448675481,0.51961377298239,0.5,-0.39821410179138184,-0.5311015248298645,0.045038852840662,-0.018106887117028236,-0.015147646889090538,0.23492826521396637,1.8819010257720947,0.09372813999652863,3.381357431411743,-28.023468017578125,-8.74502182006836,7.404296398162842,52942.0,50561.0,55303.0,51973.0,-0.29999491024331576,-0.5196181808098181,0.5
1.01,TAKEOFF,abrupt,1.0,0.6121659278869629,0.02240113914012909,0.002824428491294384,0.010951067321002483,-0.10729662328958511,-0.011417772620916367,2.412264585494995,1.6780916452407837,4.183566093444824,-62.753028869628906,-24.029516220092773,3.3451035022735596,53188.0,52994.0,56829.0,50862.0,0.6,0.0,0.5,-0.4760325253009796,0.4720010757446289,0.03310198336839676,-0.14956845343112946,-0.024138204753398895,0.24216328561306,-0.7912629246711731,-1.7131102085113525,2.1835529804229736,-34.97909927368164,25.858123779296875,-0.40444111824035645,50452.0,51113.0,53667.0,50770.0,-0.3000025448675481,0.51961377298239,0.5,-0.39821410179138184,-0.5311015248298645,0.045038852840662,-0.008795265108346939,-0.024388227611780167,0.23316681385040283,1.190201997756958,0.21199607849121094,3.5200459957122803,-45.44120788574219,-9.867254257202148,5.477934837341309,52152.0,50885.0,56290.0,52387.0,-0.29999491024331576,-0.5196181808098181,0.5
1.029,TAKEOFF,abrupt,1.0,0.6121659278869629,0.02240113914012909,0.002824428491294384,0.004206478130072355,-0.11814502626657486,0.005638601258397102,1.1726648807525635,2.1626386642456055,4.249309539794922,-42.088321685791016,-33.1295280456543,7.958788871765137,55212.0,55275.0,56669.0,47662.0,0.6,0.0,0.5,-0.4942946434020996,0.4724786877632141,0.05670460686087608,-0.128975048661232,-0.03320544213056564,0.24537217617034912,-1.4764487743377686,-2.3886170387268066,2.0496714115142822,-37.24835968017578,31.50193977355957,-4.785974502563477,51318.0,51337.0,52733.0,51392.0,-0.3000025448675481,0.51961377298239,0.5,-0.39821410179138184,-0.5311015248298645,0.045038852840662,-0.008653948083519936,-0.030541345477104187,0.2400064468383789,1.190201997756958,0.21199607849121094,3.5200459957122803,-45.44120788574219,-9.867254257202148,5.477934837341309,53270.0,50599.0,55381.0,53151.0,-0.29999491024331576,-0.5196181808098181,0.5
1.049,TAKEOFF,abrupt,1.0,0.6121659278869629,0.02240113914012909,0.002824428491294384,-0.05157140642404556,-0.11447761207818985,0.08225014805793762,0.18952800333499908,2.8699252605438232,4.4783501625061035,-15.582534790039062,-46.25101852416992,9.105082511901855,53072.0,56930.0,57758.0,46121.0,0.6,0.0,0.5,-0.4942946434020996,0.4724786877632141,0.05670460686087608,-0.12836727499961853,-0.020244035869836807,0.2688602805137634,-2.188823938369751,-3.0368010997772217,1.9415208101272583,-27.79767608642578,39.814353942871094,-6.757312774658203,51502.0,50524.0,52144.0,52256.0,-0.3000025448675481,0.51961377298239,0.5,-0.39821410179138184,-0.5311015248298645,0.045038852840662,-0.00936929602175951,-0.0339728519320488,0.24848979711532593,-0.6997382640838623,0.384243369102478,3.6280272006988525,-35.16732406616211,1.0788193941116333,1.1762529611587524,53615.0,49874.0,55164.0,54203.0,-0.29999491024331576,-0.5196181808098181,0.5
1.07,TAKEOFF,abrupt,1.0,0.5972892642021179,0.013188519515097141,0.015579592436552048,-0.09143936634063721,-0.118523009121418,0.13711699843406677,-0.5085088610649109,5.075005531311035,5.284395217895508,-3.7766056060791016,-6.091609477996826,12.997891426086426,53434.0,56437.0,57630.0,45493.0,0.6,0.0,0.5,-0.4942946434020996,0.4724786877632141,0.05670460686087608,-0.11819344758987427,-0.012416558340191841,0.2808508276939392,-2.5909667015075684,-3.7851245403289795,1.7874609231948853,-9.367660522460938,35.506832122802734,-6.168163299560547,52705.0,51676.0,50973.0,51226.0,-0.3000025448675481,0.51961377298239,0.5,-0.39832448959350586,-0.5312293767929077,0.07272858172655106,-0.01229584589600563,-0.020717045292258263,0.2758820950984955,-1.3193343877792358,0.3656875491142273,3.6363468170166016,-14.023727416992188,1.999231219291687,1.6481815576553345,53703.0,51418.0,54444.0,52894.0,-0.29999491024331576,-0.5196181808098181,0.5
1.09,TAKEOFF,abrupt,1.0,0.5972892642021179,0.013188519515097141,0.015579592436552048,-0.1296052485704422,-0.11684916168451309,0.1870492398738861,-0.6231924295425415,5.158875465393066,5.581814289093018,0.29431626200675964,17.076522827148438,18.655118942260742,55915.0,54455.0,56242.0,47487.0,0.6,0.0,0.5,-0.4942946434020996,0.4724786877632141,0.05670460686087608,-0.10970842093229294,0.005490022245794535,0.30063989758491516,-2.6253914833068848,-4.398151874542236,1.6377418041229248,18.89443016052246,24.343334197998047,-7.356176853179932,52956.0,54170.0,50338.0,48430.0,-0.3000025448675481,0.51961377298239,0.5,-0.39832448959350586,-0.5312293767929077,0.07272858172655106,-0.013936532661318779,-0.0142862219363451,0.2804732322692871,-1.612230896949768,0.4295501112937927,3.6721818447113037,4.257707118988037,12.89791202545166,0.6479134559631348,55847.0,51601.0,52784.0,52779.0,-0.29999491024331576,-0.5196181808098181,0.5
1.109,TAKEOFF,abrupt,1.0,0.5972892642021179,0.013188519515097141,0.015579592436552048,-0.13952352106571198,-0.12293414026498795,0.2086818665266037,-0.7170662879943848,4.767242431640625,5.993167877197266,-2.4240288734436035,42.956878662109375,17.44318962097168,57913.0,52487.0,56859.0,45531.0,0.6,0.0,0.5,-0.5038543343544006,0.47309836745262146,0.0874410942196846,-0.09455934166908264,0.015556387603282928,0.3114067316055298,-2.122231960296631,-4.657778739929199,1.505554437637329,31.00733757019043,-3.1137399673461914,-4.138740062713623,52377.0,55217.0,51378.0,46597.0,-0.3000025448675481,0.51961377298239,0.5,-0.39832448959350586,-0.5312293767929077,0.07272858172655106,-0.031051529571413994,-0.0008661194588057697,0.2751829922199249,-1.4458637237548828,0.1647637039422989,3.703660011291504,22.521677017211914,11.902766227722168,2.1049082279205322,57150.0,53324.0,52096.0,51463.0,-0.29999491024331576,-0.5196181808098181,0.5
1.129,TAKEOFF,abrupt,1.0,0.5972892642021179,0.013188519515097141,0.015579592436552048,-0.15459658205509186,-0.1219053715467453,0.22443188726902008,-0.7504150867462158,3.8105478286743164,6.300894260406494,-9.580159187316895,44.83346939086914,20.957008361816406,57876.0,51154.0,57481.0,46193.0,0.6,0.0,0.5,-0.5038543343544006,0.47309836745262146,0.0874410942196846,-0.07663565874099731,0.027418075129389763,0.32622650265693665,-1.4740588665008545,-4.439579963684082,1.478751540184021,35.098876953125,-17.009384155273438,-2.5526156425476074,52512.0,54771.0,52152.0,48154.0,-0.3000025448675481,0.51961377298239,0.5,-0.39832448959350586,-0.5312293767929077,0.07272858172655106,-0.03319726884365082,0.006152530200779438,0.2747039496898651,-0.9624484181404114,-0.09668996930122375,3.734724521636963,25.642227172851562,4.152894496917725,1.907027006149292,56635.0,53470.0,53295.0,51740.0,-0.29999491024331576,-0.5196181808098181,0.5
1.15,TAKEOFF,abrupt,1.0,0.5846441984176636,-0.001033738604746759,0.03883315995335579,-0.18038879334926605,-0.12051396816968918,0.24892956018447876,-0.9979062676429749,2.990591287612915,6.701338291168213,-13.993617057800293,45.97955322265625,20.38567352294922,56790.0,51807.0,58388.0,45168.0,0.6,0.0,0.5,-0.5038543343544006,0.47309836745262146,0.0874410942196846,-0.03196796029806137,0.028028499335050583,0.30782949924468994,-0.8689947724342346,-4.288708686828613,1.4593276977539062,20.28115463256836,-17.892250061035156,-1.5282623767852783,52416.0,52495.0,52588.0,51051.0,-0.3000025448675481,0.51961377298239,0.5,-0.39832448959350586,-0.5312293767929077,0.07272858172655106,-0.027918139472603798,0.006237511523067951,0.28198835253715515,-0.4038662016391754,-0.17788690328598022,3.742217779159546,17.7029972076416,1.7939711809158325,1.7723805904388428,55754.0,54198.0,53949.0,51897.0,-0.29999491024331576,-0.5196181808098181,0.5
1.17,TAKEOFF,abrupt,1.0,0.5846441984176636,-0.001033738604746759,0.03883315995335579,-0.18569447100162506,-0.10547664761543274,0.25511032342910767,-1.3228206634521484,2.092071771621704,7.098290920257568,-16.709217071533203,34.981605529785156,18.5312442779541,56309.0,51010.0,58909.0,46126.0,0.6,0.0,0.5,-0.5038543343544006,0.47309836745262146,0.0874410942196846,-0.016704687848687172,0.03184937685728073,0.31183141469955444,-0.6386368870735168,-4.092949867248535,1.4319803714752197,-0.39300981163978577,-1.2104132175445557,-0.39938727021217346,52846.0,51711.0,51926.0,52045.0,-0.3000025448675481,0.51961377298239,0.5,-0.4010719954967499,-0.5302343964576721,0.09617604315280914,-0.026749245822429657,0.0022626565769314766,0.29575037956237793,-0.020526356995105743,-0.1924038678407669,3.8035144805908203,12.843376159667969,-1.5977567434310913,2.4124298095703125,56244.0,53488.0,54179.0,51988.0,-0.29999491024331576,-0.5196181808098181,0.5
1.189,TAKEOFF,abrupt,1.0,0.5846441984176636,-0.001033738604746759,0.03883315995335579,-0.18392448127269745,-0.09920187294483185,0.25745341181755066,-1.8011741638183594,1.3563202619552612,7.447154521942139,-12.889531135559082,32.397518157958984,21.825788497924805,56562.0,53029.0,56866.0,47599.0,0.6,0.0,0.5,-0.5038543343544006,0.47309836745262146,0.0874410942196846,-0.005994337145239115,0.03805677965283394,0.32190656661987305,-0.8151556849479675,-4.075355529785156,1.4301478862762451,-13.132835388183594,9.355530738830566,-1.0195902585983276,52846.0,51711.0,51926.0,52045.0,-0.3000025448675481,0.51961377298239,0.5,-0.4010719954967499,-0.5302343964576721,0.09617604315280914,-0.026049982756376266,0.003293532645329833,0.30211955308914185,0.04637683555483818,-0.015823332592844963,3.8359079360961914,2.0752415657043457,-1.7194786071777344,2.0973258018493652,55851.0,52916.0,54909.0,52792.0,-0.29999491024331576,-0.5196181808098181,0.5
1.209,TAKEOFF,abrupt,1.0,0.5846441984176636,-0.001033738604746759,0.03883315995335579,-0.20298105478286743,-0.0902629867196083,0.27472835779190063,-2.095966339111328,0.57883220911026,7.782532215118408,-1.4363540410995483,43.49652099609375,22.204994201660156,58860.0,49461.0,57732.0,47299.0,0.6,0.0,0.5,-0.49865949153900146,0.4758818447589874,0.11193226277828217,0.025773975998163223,0.032630667090415955,0.3107315003871918,-0.990767776966095,-4.376563549041748,1.3697882890701294,-14.602131843566895,5.265353679656982,0.07276836782693863,52657.0,52545.0,53426.0,52146.0,-0.3000025448675481,0.51961377298239,0.5,-0.4010719954967499,-0.5302343964576721,0.09617604315280914,-0.03429734334349632,0.010192965157330036,0.31207606196403503,0.08781954646110535,-0.060286421328783035,3.892456293106079,-5.695913791656494,3.896087408065796,1.9884750843048096,55936.0,53199.0,55155.0,52882.0,-0.29999491024331576,-0.5196181808098181,0.5
1.229,TAKEOFF,abrupt,1.0,0.5846441984176636,-0.001033738604746759,0.03883315995335579,-0.20174308121204376,-0.07434359937906265,0.2758069634437561,-2.2070324420928955,-0.2925703227519989,8.172537803649902,2.927319288253784,54.99626541137695,21.145130157470703,60003.0,50520.0,56693.0,46826.0,0.6,0.0,0.5,-0.49865949153900146,0.4758818447589874,0.11193226277828217,0.05043865740299225,0.034726742655038834,0.3060635030269623,-1.1895201206207275,-4.491626262664795,1.3441046476364136,-7.543027877807617,-2.56319260597229,-1.0197757482528687,52657.0,52545.0,53426.0,52146.0,-0.3000025448675481,0.51961377298239,0.5,-0.4010719954967499,-0.5302343964576721,0.09617604315280914,-0.03429734334349632,0.010192965157330036,0.31207606196403503,-0.036586858332157135,-0.1709427684545517,3.9248242378234863,-8.004254341125488,8.617921829223633,1.4381626844406128,55919.0,52629.0,55386.0,53672.0,-0.29999491024331576,-0.5196181808098181,0.5
1.249,TAKEOFF,abrupt,1.0,0.5692137479782104,-0.0055576954036951065,0.06526391953229904,-0.1990123987197876,-0.06603073328733444,0.2797839939594269,-2.2036406993865967,-1.4220291376113892,8.594820976257324,5.1919732093811035,62.57803726196289,18.45234489440918,58731.0,50984.0,55495.0,50257.0,0.6,0.0,0.5,-0.49865949153900146,0.4758818447589874,0.11193226277828217,0.07111959159374237,0.039898164570331573,0.30898603796958923,-1.3139727115631104,-4.350507736206055,1.293870449066162,1.4949852228164673,-17.849790573120117,-0.29474061727523804,52579.0,54572.0,53489.0,50265.0,-0.3000025448675481,0.51961377298239,0.5,-0.4010719954967499,-0.5302343964576721,0.09617604315280914,-0.03398611769080162,0.010004455223679543,0.3188695013523102,-0.21281632781028748,-0.2039346843957901,3.9257569313049316,-8.18208122253418,14.630516052246094,0.8460742831230164,56302.0,51891.0,55024.0,54412.0,-0.29999491024331576,-0.5196181808098181,0.5
1.27,TAKEOFF,abrupt,1.0,0.5692137479782104,-0.0055576954036951065,0.06526391953229904,-0.19192533195018768,-0.057526055723428726,0.2822543680667877,-2.0655033588409424,-2.7152886390686035,8.908931732177734,14.473189353942871,63.964359283447266,16.128215789794922,58908.0,52062.0,55375.0,48984.0,0.6,0.0,0.5,-0.49865949153900146,0.4758818447589874,0.11193226277828217,0.07974454760551453,0.04272669553756714,0.3156382739543915,-1.2282733917236328,-3.895749807357788,1.2919504642486572,11.284892082214355,-25.89055061340332,0.454711377620697,52091.0,54542.0,53842.0,49831.0,-0.3000025448675481,0.51961377298239,0.5,-0.40522322058677673,-0.526260256767273,0.12640661001205444,-0.035292476415634155,0.00924790557473898,0.342835932970047,-0.2866257131099701,-0.5526127815246582,3.9708075523376465,-1.3908206224441528,13.549020767211914,1.6017875671386719,56674.0,52249.0,54011.0,53427.0,-0.29999491024331576,-0.5196181808098181,0.5
1.289,TAKEOFF,abrupt,1.0,0.5692137479782104,-0.0055576954036951065,0.06526391953229904,-0.14976051449775696,-0.054908450692892075,0.28659895062446594,-1.6930296421051025,-4.189530849456787,9.144596099853516,11.15363883972168,52.83591842651367,13.251575469970703,59670.0,52347.0,54387.0,48835.0,0.6,0.0,0.5,-0.49865949153900146,0.4758818447589874,0.11193226277828217,0.08042612671852112,0.04440683498978615,0.32741138339042664,-0.962159276008606,-3.186692237854004,1.2714678049087524,11.683374404907227,-31.051424026489258,0.10097716748714447,52091.0,54542.0,53842.0,49831.0,-0.3000025448675481,0.51961377298239,0.5,-0.40522322058677673,-0.526260256767273,0.12640661001205444,-0.03355661407113075,0.0103327427059412,0.35553234815597534,-0.4291880130767822,-0.7638130784034729,4.0027055740356445,3.059480667114258,11.535913467407227,0.6931169629096985,56507.0,52378.0,53901.0,52925.0,-0.29999491024331576,-0.5196181808098181,0.5
1.309,TAKEOFF,abrupt,1.0,0.5692137479782104,-0.0055576954036951065,0.06526391953229904,-0.13357174396514893,-0.04690885916352272,0.2894798517227173,-1.4167276620864868,-5.201972484588623,9.40314769744873,14.592124938964844,37.38200378417969,12.332001686096191,58612.0,52636.0,55625.0,48389.0,0.6,0.0,0.5,-0.4987613260746002,0.48414650559425354,0.14581944048404694,0.07635126262903214,0.05543156713247299,0.35591310262680054,-0.7922425866127014,-2.436269998550415,1.3410751819610596,10.753725051879883,-28.77964973449707,1.0604881048202515,51721.0,53762.0,53310.0,49077.0,-0.3000025448675481,0.51961377298239,0.5,-0.40522322058677673,-0.526260256767273,0.12640661001205444,-0.04205913841724396,0.025372952222824097,0.3656162917613983,-0.3432141840457916,-0.9498956799507141,4.011462688446045,7.579221248626709,2.7451369762420654,0.7914721369743347,56019.0,52645.0,54073.0,52372.0,-0.29999491024331576,-0.5196181808098181,0.5
1.329,TAKEOFF,abrupt,1.0,0.5692137479782104,-0.0055576954036951065,0.06526391953229904,-0.10403802990913391,-0.042962975800037384,0.2895064353942871,-1.0928999185562134,-5.967551231384277,9.58858871459961,10.134531021118164,14.61886215209961,10.050077438354492,57701.0,53032.0,56598.0,47906.0,0.6,0.0,0.5,-0.4987613260746002,0.48414650559425354,0.14581944048404694,0.08019574731588364,0.0633704885840416,0.3747461438179016,-0.7225430011749268,-2.1237151622772217,1.4103889465332031,8.371943473815918,-21.148290634155273,1.917704463005066,51721.0,53762.0,53310.0,49077.0,-0.3000025448675481,0.51961377298239,0.5,-0.40522322058677673,-0.526260256767273,0.12640661001205444,-0.03869864344596863,0.027027960866689682,0.3765753209590912,-0.13580957055091858,-0.972708523273468,4.028417587280273,8.660272598266602,-0.6098880171775818,1.3451309204101562,55659.0,52855.0,54231.0,51581.0,-0.29999491024331576,-0.5196181808098181,0.5
1.349,TAKEOFF,abrupt,1.0,0.5605841875076294,-0.011508292518556118,0.09378229826688766,-0.08146396279335022,-0.03705992177128792,0.29589203000068665,-0.9081733822822571,-6.213958263397217,9.7338228225708,3.568580150604248,-3.7778196334838867,8.06905746459961,57347.0,53441.0,56946.0,47416.0,0.6,0.0,0.5,-0.4987613260746002,0.48414650559425354,0.14581944048404694,0.08583357185125351,0.06866469979286194,0.38930651545524597,-0.5774288773536682,-1.6829267740249634,1.4888089895248413,6.203266143798828,-12.733230590820312,2.763667583465576,52605.0,52493.0,51889.0,49799.0,-0.3000025448675481,0.51961377298239,0.5,-0.40522322058677673,-0.526260256767273,0.12640661001205444,-0.03525126352906227,0.027969952672719955,0.38589322566986084,0.0872587338089943,-0.94428950548172,4.0565505027771,10.765748023986816,-2.8450307846069336,1.3846230506896973,56115.0,52870.0,53406.0,51103.0,-0.29999491024331576,-0.5196181808098181,0.5
1.37,TAKEOFF,abrupt,1.0,0.5605841875076294,-0.011508292518556118,0.09378229826688766,-0.07279841601848602,-0.002173653105273843,0.3008198142051697,-0.8304427862167358,-6.075351238250732,9.924525260925293,-2.8141682147979736,-22.767196655273438,6.3028106689453125,56233.0,53681.0,57933.0,47070.0,0.6,0.0,0.5,-0.4987613260746002,0.48414650559425354,0.14581944048404694,0.09184852987527847,0.07068835943937302,0.40039390325546265,-0.4547552466392517,-1.432102084159851,1.5122002363204956,5.507013320922852,-4.962867259979248,1.5882500410079956,51972.0,52846.0,52160.0,48812.0,-0.3000025448675481,0.51961377298239,0.5,-0.4108538031578064,-0.5218283534049988,0.16403622925281525,-0.03183295577764511,0.02808951586484909,0.3950759172439575,0.3844577372074127,-0.9762608408927917,4.06214714050293,6.379907131195068,1.454561471939087,1.2536007165908813,55401.0,52465.0,53793.0,51100.0,-0.29999491024331576,-0.5196181808098181,0.5
1.389,TAKEOFF,abrupt,1.0,0.5605841875076294,-0.011508292518556118,0.09378229826688766,-0.05431395769119263,0.004956651479005814,0.29968008399009705,-1.1239911317825317,-5.572475910186768,10.124005317687988,-11.765597343444824,-33.92843246459961,4.175651550292969,55868.0,53725.0,58167.0,46946.0,0.6,0.0,0.5,-0.4987613260746002,0.48414650559425354,0.14581944048404694,0.09686433523893356,0.07238145917654037,0.41223859786987305,-0.3528450131416321,-1.3183404207229614,1.5545144081115723,9.187995910644531,-1.5117807388305664,2.613988161087036,52157.0,51675.0,51754.0,49485.0,-0.3000025448675481,0.51961377298239,0.5,-0.4108538031578064,-0.5218283534049988,0.16403622925281525,-0.005466305185109377,0.006119773723185062,0.396619975566864,0.5387232303619385,-1.0741195678710938,4.100979804992676,3.3422977924346924,-0.3855823278427124,1.657140851020813,56255.0,51218.0,52602.0,52205.0,-0.29999491024331576,-0.5196181808098181,0.5
1.409,TAKEOFF,abrupt,1.0,0.5605841875076294,-0.011508292518556118,0.09378229826688766,-0.03369689732789993,0.017636578530073166,0.30962955951690674,-1.2559245824813843,-4.958474636077881,10.179058074951172,-11.032648086547852,-34.56608200073242,1.9597245454788208,55676.0,54141.0,58190.0,46291.0,0.6,0.0,0.5,-0.4864603281021118,0.48851433396339417,0.18650829792022705,0.11542829871177673,0.05959839001297951,0.4195787012577057,-0.018367813900113106,-1.4066672325134277,1.5400912761688232,8.131604194641113,-1.8552272319793701,4.667518138885498,52056.0,52086.0,51410.0,48427.0,-0.3000025448675481,0.51961377298239,0.5,-0.4108538031578064,-0.5218283534049988,0.16403622925281525,-0.006483549252152443,0.010752146132290363,0.4032733738422394,0.6996739506721497,-1.1322152614593506,4.095827579498291,0.8552536368370056,-2.1657631397247314,1.0757211446762085,54957.0,51782.0,53020.0,51948.0,-0.29999491024331576,-0.5196181808098181,0.5
1.429,TAKEOFF,abrupt,1.0,0.5605841875076294,-0.011508292518556118,0.09378229826688766,-0.01967785507440567,0.0256254393607378,0.3137056529521942,-1.5785781145095825,-4.186840534210205,10.323834419250488,-6.594408988952637,-24.803993225097656,1.6793831586837769,54992.0,53985.0,58676.0,46277.0,0.6,0.0,0.5,-0.4864603281021118,0.48851433396339417,0.18650829792022705,0.11897533386945724,0.05910015106201172,0.4305313527584076,0.19304388761520386,-1.343079924583435,1.6090953350067139,10.911609649658203,-5.9218339920043945,4.1299309730529785,51085.0,52047.0,51993.0,47834.0,-0.3000025448675481,0.51961377298239,0.5,-0.4108538031578064,-0.5218283534049988,0.16403622925281525,0.00770998653024435,-0.0017498424276709557,0.40882739424705505,0.6309329867362976,-1.0352553129196167,4.128674030303955,-3.965583562850952,-5.3980021476745605,2.1091465950012207,55017.0,51480.0,53430.0,50978.0,-0.29999491024331576,-0.5196181808098181,0.5
1.449,TAKEOFF,abrupt,1.0,0.556041955947876,-0.007065857760608196,0.12940669059753418,-0.002837536158040166,0.026721127331256866,0.32667282223701477,-1.6731107234954834,-3.6537070274353027,10.303034782409668,0.12111344933509827,-20.356250762939453,1.0545166730880737,55760.0,52924.0,57856.0,47266.0,0.6,0.0,0.5,-0.4864603281021118,0.48851433396339417,0.18650829792022705,0.12608602643013,0.056712932884693146,0.43574029207229614,0.44331008195877075,-1.2296452522277832,1.641505241394043,6.9361138343811035,-13.999561309814453,4.547755718231201,51085.0,52047.0,51993.0,47834.0,-0.3000025448675481,0.51961377298239,0.5,-0.4108538031578064,-0.5218283534049988,0.16403622925281525,0.0047859735786914825,0.005206023808568716,0.41443026065826416,0.5484939217567444,-0.9026440382003784,4.165894031524658,-6.145575046539307,-10.671408653259277,1.8904098272323608,54801.0,50857.0,53334.0,51182.0,-0.29999491024331576,-0.5196181808098181,0.5
1.469,TAKEOFF,abrupt,1.0,0.556041955947876,-0.007065857760608196,0.12940669059753418,0.007257902063429356,0.02721543237566948,0.33779773116111755,-1.628607988357544,-3.188596487045288,10.284988403320312,3.373556137084961,-14.896053314208984,0.4668242335319519,57601.0,52638.0,55738.0,47334.0,0.6,0.0,0.5,-0.4864603281021118,0.48851433396339417,0.18650829792022705,0.13131967186927795,0.056490737944841385,0.4371882379055023,0.5671965479850769,-0.969582200050354,1.6737552881240845,0.9370771050453186,-19.64836883544922,2.9599130153656006,49895.0,51842.0,52613.0,47484.0,-0.3000025448675481,0.51961377298239,0.5,-0.406438410282135,-0.5232719779014587,0.2035999298095703,0.008222426287829876,0.003449171781539917,0.41961145401000977,0.3815039396286011,-0.6922693848609924,4.224593162536621,-8.09380054473877,-13.96446704864502,2.980781078338623,54218.0,50117.0,53681.0,51391.0,-0.29999491024331576,-0.5196181808098181,0.5
1.49,TAKEOFF,abrupt,1.0,0.556041955947876,-0.007065857760608196,0.12940669059753418,0.016341309994459152,0.034146346151828766,0.3373015820980072,-1.4715369939804077,-2.9362616539001465,10.245274543762207,4.4841389656066895,-13.654837608337402,0.47645771503448486,57689.0,52220.0,55445.0,47689.0,0.6,0.0,0.5,-0.4864603281021118,0.48851433396339417,0.18650829792022705,0.1344434767961502,0.05455867573618889,0.44158944487571716,0.6029399633407593,-0.5667749643325806,1.7350953817367554,-0.9738814234733582,-24.67612075805664,4.378705978393555,49770.0,52230.0,52524.0,46483.0,-0.3000025448675481,0.51961377298239,0.5,-0.406438410282135,-0.5232719779014587,0.2035999298095703,0.01084058079868555,0.005893888883292675,0.4255211055278778,0.2672131657600403,-0.4232204854488373,4.26212739944458,-6.361391067504883,-12.70976448059082,3.417809247970581,53982.0,50942.0,53312.0,50350.0,-0.29999491024331576,-0.5196181808098181,0.5
1.509,TAKEOFF,abrupt,1.0,0.556041955947876,-0.007065857760608196,0.12940669059753418,0.02203737385571003,0.03790248557925224,0.3405262231826782,-1.34358549118042,-2.7432804107666016,10.264256477355957,4.741748332977295,-7.679579257965088,-0.4453073740005493,56677.0,51656.0,56464.0,48424.0,0.6,0.0,0.5,-0.4738050103187561,0.4945220947265625,0.22913022339344025,0.1280698925256729,0.05448469519615173,0.4428281784057617,0.5843092799186707,-0.01720171794295311,1.7546242475509644,-1.5779633522033691,-25.08852767944336,4.5925374031066895,49795.0,51619.0,52135.0,46932.0,-0.3000025448675481,0.51961377298239,0.5,-0.406438410282135,-0.5232719779014587,0.2035999298095703,0.01209256425499916,-0.00016803077596705407,0.4222692549228668,0.1654493659734726,-0.2038729041814804,4.3428802490234375,-1.3700752258300781,-8.179988861083984,3.20611572265625,54403.0,49749.0,53037.0,50946.0,-0.29999491024331576,-0.5196181808098181,0.5
1.53,TAKEOFF,abrupt,1.0,0.556041955947876,-0.007065857760608196,0.12940669059753418,0.02838420867919922,0.042190875858068466,0.3500922620296478,-1.2370613813400269,-2.5861010551452637,10.195204734802246,3.8922340869903564,-6.152043342590332,-1.2939485311508179,56500.0,52632.0,56386.0,47007.0,0.6,0.0,0.5,-0.4738050103187561,0.4945220947265625,0.22913022339344025,0.12775620818138123,0.05248172953724861,0.4453304409980774,0.5537218451499939,0.457506388425827,1.8426423072814941,-2.36838436126709,-22.153783798217773,3.5971970558166504,49795.0,51619.0,52135.0,46932.0,-0.3000025448675481,0.51961377298239,0.5,-0.406438410282135,-0.5232719779014587,0.2035999298095703,0.015519513748586178,0.0010145324049517512,0.42768579721450806,0.11551833152770996,-0.03068852797150612,4.405580520629883,-2.3954341411590576,-7.803388595581055,2.5817158222198486,54094.0,50543.0,53004.0,49558.0,-0.29999491024331576,-0.5196181808098181,0.5
1.55,TAKEOFF,abrupt,1.0,0.5570152997970581,-0.005016246344894171,0.1659102886915207,0.03414636477828026,0.046612948179244995,0.3494681119918823,-1.1605638265609741,-2.3998196125030518,10.13652515411377,3.5126969814300537,-7.938569068908691,-0.5525130033493042,54767.0,53287.0,57841.0,45709.0,0.6,0.0,0.5,-0.4738050103187561,0.4945220947265625,0.22913022339344025,0.11920038610696793,0.05218363553285599,0.46187663078308105,0.5267673134803772,1.1141481399536133,1.9326413869857788,3.1739718914031982,-12.922322273254395,3.8146562576293945,50353.0,51110.0,50705.0,46005.0,-0.3000025448675481,0.51961377298239,0.5,-0.406438410282135,-0.5232719779014587,0.2035999298095703,0.01580679975450039,0.0005951011553406715,0.4267456829547882,0.08412046730518341,0.11596827954053879,4.458538055419922,-1.348975658416748,-6.245796203613281,3.1740777492523193,54013.0,49900.0,52832.0,49896.0,-0.29999491024331576,-0.5196181808098181,0.5
1.57,TAKEOFF,abrupt,1.0,0.5570152997970581,-0.005016246344894171,0.1659102886915207,0.035383936017751694,0.05321824923157692,0.3395204246044159,-1.1396160125732422,-2.168091058731079,10.081202507019043,0.5933529734611511,-11.521367073059082,-0.8344376683235168,56495.0,52452.0,56252.0,46849.0,0.6,0.0,0.5,-0.4738050103187561,0.4945220947265625,0.22913022339344025,0.089142344892025,0.07699918746948242,0.4653594195842743,0.34371110796928406,1.4617817401885986,2.0354278087615967,6.8396196365356445,-9.190034866333008,4.118706703186035,50837.0,51415.0,50168.0,45495.0,-0.3000025448675481,0.51961377298239,0.5,-0.4045790433883667,-0.5230735540390015,0.2465524673461914,0.014862937852740288,-2.093458897434175e-05,0.42324087023735046,0.0631873607635498,0.2407732754945755,4.518117427825928,-1.4372711181640625,-6.76984167098999,2.343731164932251,54311.0,49501.0,52361.0,49896.0,-0.29999491024331576,-0.5196181808098181,0.5
1.589,TAKEOFF,abrupt,1.0,0.5570152997970581,-0.005016246344894171,0.1659102886915207,0.039900314062833786,0.058523569256067276,0.3383517265319824,-1.143255591392517,-1.9566830396652222,10.0859375,3.4387073516845703,-14.300793647766113,-1.6418957710266113,55208.0,51895.0,57458.0,47685.0,0.6,0.0,0.5,-0.4738050103187561,0.4945220947265625,0.22913022339344025,0.09725619852542877,0.06713812798261642,0.4516594111919403,0.5611801147460938,1.549212098121643,2.1005501747131348,10.8546781539917,-4.187297821044922,3.751274824142456,50427.0,50086.0,50499.0,47117.0,-0.3000025448675481,0.51961377298239,0.5,-0.4045790433883667,-0.5230735540390015,0.2465524673461914,0.014862937852740288,-2.093458897434175e-05,0.42324087023735046,0.044646210968494415,0.3377077579498291,4.565462112426758,-1.1147979497909546,-3.7461864948272705,2.3224544525146484,53990.0,49860.0,52448.0,49276.0,-0.29999491024331576,-0.5196181808098181,0.5
1.609,TAKEOFF,abrupt,1.0,0.5570152997970581,-0.005016246344894171,0.1659102886915207,0.04553556814789772,0.06102409586310387,0.3354300856590271,-1.1103440523147583,-1.703824520111084,10.08043384552002,4.878708362579346,-7.0062127113342285,-4.719846725463867,55161.0,53015.0,57340.0,46452.0,0.6,0.0,0.5,-0.46448439359664917,0.5033726096153259,0.27466973662376404,0.09905244410037994,0.0622943639755249,0.4407591223716736,0.7912530303001404,1.5983492136001587,2.155242681503296,8.773805618286133,1.179761528968811,3.136836051940918,49896.0,50756.0,51065.0,45816.0,-0.3000025448675481,0.51961377298239,0.5,-0.4045790433883667,-0.5230735540390015,0.2465524673461914,0.01381162740290165,-0.0002698259777389467,0.41957375407218933,0.0113134840503335,0.4279233515262604,4.6078009605407715,-1.590312123298645,-4.555168628692627,2.055424451828003,53591.0,49016.0,52579.0,49931.0,-0.29999491024331576,-0.5196181808098181,0.5
1.629,TAKEOFF,abrupt,1.0,0.5570152997970581,-0.005016246344894171,0.1659102886915207,0.0485105887055397,0.06501522660255432,0.3315868675708771,-0.9915680885314941,-1.5169708728790283,9.965720176696777,7.340169429779053,-5.043117523193359,-2.865445375442505,55909.0,53059.0,56673.0,46196.0,0.6,0.0,0.5,-0.46448439359664917,0.5033726096153259,0.27466973662376404,0.0938451811671257,0.05929088592529297,0.43471670150756836,0.9918107390403748,1.606298565864563,2.2220044136047363,9.271587371826172,-0.27494022250175476,4.561070919036865,50583.0,50752.0,50398.0,45968.0,-0.3000025448675481,0.51961377298239,0.5,-0.4045790433883667,-0.5230735540390015,0.2465524673461914,0.012483086436986923,-0.00045785357360728085,0.4141584038734436,-0.012789779342710972,0.48948079347610474,4.640971660614014,-1.5608974695205688,-3.400080680847168,1.193075180053711,53760.0,49232.0,52254.0,49484.0,-0.29999491024331576,-0.5196181808098181,0.5
1.649,TAKEOFF,abrupt,1.0,0.5597491264343262,-0.0002857621875591576,0.19960404932498932,0.053108662366867065,0.06663260608911514,0.3307384252548218,-0.817692756652832,-1.3420813083648682,9.91925048828125,6.629494667053223,-9.902780532836914,-3.511216163635254,55186.0,52285.0,57278.0,47309.0,0.6,0.0,0.5,-0.46448439359664917,0.5033726096153259,0.27466973662376404,0.09432641416788101,0.05503647029399872,0.42027243971824646,1.1985201835632324,1.5691157579421997,2.283367156982422,7.390233516693115,-0.5195564031600952,3.291020631790161,48878.0,51172.0,51653.0,44897.0,-0.3000025448675481,0.51961377298239,0.5,-0.4045790433883667,-0.5230735540390015,0.2465524673461914,0.057635024189949036,-0.009885305538773537,0.38289138674736023,0.04737824201583862,0.2034231722354889,4.679446697235107,-3.2620246410369873,-0.916609525680542,-0.8346334099769592,53767.0,49389.0,51929.0,49338.0,-0.29999491024331576,-0.5196181808098181,0.5
1.669,TAKEOFF,abrupt,1.0,0.5597491264343262,-0.0002857621875591576,0.19960404932498932,0.05464436486363411,0.06915057450532913,0.32769179344177246,-0.6880139112472534,-1.1432288885116577,9.822673797607422,5.830924034118652,-6.152899742126465,-3.405144214630127,55323.0,51870.0,57126.0,47655.0,0.6,0.0,0.5,-0.46448439359664917,0.5033726096153259,0.27466973662376404,0.05989017337560654,0.06512343138456345,0.4230150878429413,1.2262569665908813,1.818077802658081,2.4122893810272217,6.248780727386475,-2.306002140045166,3.116635799407959,49542.0,50079.0,50919.0,46090.0,-0.3000025448675481,0.51961377298239,0.5,-0.39467480778694153,-0.5239108204841614,0.2839173972606659,0.057635024189949036,-0.009885305538773537,0.38289138674736023,-0.0756293460726738,0.26799023151397705,4.6756744384765625,-3.6287336349487305,-2.163935422897339,-1.449884295463562,54219.0,48159.0,51886.0,51037.0,-0.29999491024331576,-0.5196181808098181,0.5
1.689,TAKEOFF,abrupt,1.0,0.5597491264343262,-0.0002857621875591576,0.19960404932498932,0.058193329721689224,0.0693824365735054,0.3287372887134552,-0.6238371729850769,-1.023377776145935,9.774468421936035,4.788761138916016,-1.6971913576126099,-4.040154457092285,55968.0,52119.0,56365.0,47535.0,0.6,0.0,0.5,-0.46448439359664917,0.5033726096153259,0.27466973662376404,0.054051510989665985,0.06070610135793686,0.4163377285003662,1.3320282697677612,1.8303437232971191,2.4768900871276855,1.6430189609527588,1.3231691122055054,3.080209970474243,49056.0,50330.0,51375.0,45417.0,-0.3000025448675481,0.51961377298239,0.5,-0.39467480778694153,-0.5239108204841614,0.2839173972606659,0.05135446414351463,-0.003968390636146069,0.3757619559764862,-0.1614062637090683,0.36115849018096924,4.657699108123779,-2.0193657875061035,-8.898874282836914,-3.039646863937378,54334.0,49169.0,51537.0,50171.0,-0.29999491024331576,-0.5196181808098181,0.5
1.709,TAKEOFF,abrupt,1.0,0.5597491264343262,-0.0002857621875591576,0.19960404932498932,0.05317538231611252,0.07208620011806488,0.31705278158187866,-0.4919857084751129,-0.9472501873970032,9.641901969909668,6.387190818786621,-3.7237050533294678,-4.547230243682861,55116.0,52102.0,57055.0,47302.0,0.6,0.0,0.5,-0.4617546796798706,0.5094506144523621,0.316487580537796,0.048231251537799835,0.05603204667568207,0.4084436595439911,1.420390009880066,1.8704429864883423,2.5231895446777344,0.21397706866264343,0.10155230760574341,3.8763363361358643,49439.0,50269.0,50878.0,45469.0,-0.3000025448675481,0.51961377298239,0.5,-0.39467480778694153,-0.5239108204841614,0.2839173972606659,0.0350191704928875,-0.010451006703078747,0.37492942810058594,-0.13648784160614014,0.6718482375144958,4.581090927124023,-2.609729528427124,-14.350237846374512,-2.1248230934143066,53518.0,49687.0,52405.0,49776.0,-0.29999491024331576,-0.5196181808098181,0.5
1.729,TAKEOFF,abrupt,1.0,0.5597491264343262,-0.0002857621875591576,0.19960404932498932,0.055641718208789825,0.07396106421947479,0.3120025396347046,-0.40260186791419983,-0.803022027015686,9.613811492919922,3.8505618572235107,-1.572847604751587,-5.225330352783203,55522.0,52148.0,56815.0,47591.0,0.6,0.0,0.5,-0.4617546796798706,0.5094506144523621,0.316487580537796,0.0369671955704689,0.0447014756500721,0.3994642496109009,1.4310535192489624,1.8498634099960327,2.5937297344207764,4.039859771728516,4.1457109451293945,3.023568630218506,50509.0,50325.0,49688.0,45138.0,-0.3000025448675481,0.51961377298239,0.5,-0.39467480778694153,-0.5239108204841614,0.2839173972606659,0.0350191704928875,-0.010451006703078747,0.37492942810058594,-0.14216656982898712,0.9883130788803101,4.540256500244141,0.07715800404548645,-18.110002517700195,-2.867738723754883,52668.0,50867.0,52819.0,48077.0,-0.29999491024331576,-0.5196181808098181,0.5
1.749,TAKEOFF,abrupt,1.0,0.5623961091041565,0.005797817837446928,0.22976036369800568,0.05210675299167633,0.075707346200943,0.3036646544933319,-0.29351627826690674,-0.7616960406303406,9.51131534576416,5.025231838226318,-0.4945966601371765,-4.898278713226318,54997.0,53285.0,57318.0,46074.0,0.6,0.0,0.5,-0.4617546796798706,0.5094506144523621,0.316487580537796,0.022897113114595413,0.04883074015378952,0.3935053050518036,1.4112884998321533,1.8428916931152344,2.6998956203460693,5.230963230133057,11.433989524841309,1.9020448923110962,49236.0,49902.0,50951.0,45497.0,-0.3000025448675481,0.51961377298239,0.5,-0.39467480778694153,-0.5239108204841614,0.2839173972606659,0.028663408011198044,-0.011652051471173763,0.3589780330657959,-0.14400817453861237,1.3521984815597534,4.456750392913818,-0.6119142174720764,-17.18326759338379,-2.7005250453948975,52725.0,50736.0,52603.0,48211.0,-0.29999491024331576,-0.5196181808098181,0.5
1.769,TAKEOFF,abrupt,1.0,0.5623961091041565,0.005797817837446928,0.22976036369800568,0.05418561026453972,0.07681535184383392,0.2986944615840912,-0.2009294182062149,-0.6413798332214355,9.464754104614258,7.238391876220703,-1.299547791481018,-5.214008808135986,55530.0,53354.0,56893.0,46143.0,0.6,0.0,0.5,-0.4617546796798706,0.5094506144523621,0.316487580537796,0.017243418842554092,0.0438913069665432,0.38432225584983826,1.5009160041809082,1.6316295862197876,2.7072572708129883,0.24213063716888428,13.82742691040039,2.483095169067383,49236.0,49902.0,50951.0,45497.0,-0.3000025448675481,0.51961377298239,0.5,-0.3951391875743866,-0.5265096426010132,0.3234294056892395,0.028663408011198044,-0.011652051471173763,0.3589780330657959,-0.16839565336704254,1.6595475673675537,4.3751959800720215,-5.776289939880371,-9.994868278503418,-3.373417615890503,52463.0,49375.0,52837.0,49598.0,-0.29999491024331576,-0.5196181808098181,0.5
1.789,TAKEOFF,abrupt,1.0,0.5623961091041565,0.005797817837446928,0.22976036369800568,0.0560971200466156,0.07741744816303253,0.29806727170944214,-0.04077837988734245,-0.543738603591919,9.352367401123047,10.283197402954102,-4.10666561126709,-6.1011738777160645,55433.0,52481.0,56864.0,47572.0,0.6,0.0,0.5,-0.4617546796798706,0.5094506144523621,0.316487580537796,0.012570937164127827,0.03653956204652786,0.3656488060951233,1.5273829698562622,1.3388499021530151,2.7564761638641357,4.555334091186523,14.153617858886719,2.4439330101013184,49551.0,49552.0,50989.0,46011.0,-0.3000025448675481,0.51961377298239,0.5,-0.3951391875743866,-0.5265096426010132,0.3234294056892395,0.023933973163366318,-0.011548325419425964,0.3517083525657654,-0.3071233034133911,1.7976986169815063,4.315159797668457,-5.652811527252197,-2.843578577041626,-3.183244228363037,53198.0,48636.0,52012.0,50343.0,-0.29999491024331576,-0.5196181808098181,0.5
1.81,TAKEOFF,abrupt,1.0,0.5623961091041565,0.005797817837446928,0.22976036369800568,0.0560971200466156,0.07741744816303253,0.29806727170944214,0.145289808511734,-0.4647306799888611,9.229816436767578,7.721991539001465,-6.064638137817383,-4.586930751800537,55560.0,52209.0,56820.0,47652.0,0.6,0.0,0.5,-0.4617546796798706,0.5094506144523621,0.316487580537796,0.011436156928539276,0.027980657294392586,0.34888479113578796,1.6051369905471802,1.045069694519043,2.8416028022766113,0.8558709025382996,10.997010231018066,2.8667006492614746,49551.0,49552.0,50989.0,46011.0,-0.3000025448675481,0.51961377298239,0.5,-0.3951391875743866,-0.5265096426010132,0.3234294056892395,0.019234316423535347,-0.011805358342826366,0.34238165616989136,-0.315178781747818,1.631187915802002,4.217894077301025,-3.117938756942749,3.7342605590820312,-4.5886335372924805,53305.0,49579.0,51716.0,49577.0,-0.29999491024331576,-0.5196181808098181,0.5
1.829,TAKEOFF,abrupt,1.0,0.5623961091041565,0.005797817837446928,0.22976036369800568,0.05776267498731613,0.07736325263977051,0.2960374653339386,0.24964956939220428,-0.38241127133369446,9.140575408935547,5.21353816986084,-4.445459365844727,-5.352614402770996,54637.0,52256.0,57679.0,47673.0,0.6,0.0,0.5,-0.45902150869369507,0.5115238428115845,0.35241806507110596,0.010883032344281673,0.014204999431967735,0.3374617397785187,1.6995947360992432,0.7805755138397217,2.937352418899536,6.703214168548584,13.246419906616211,1.671170711517334,50812.0,50312.0,49795.0,45313.0,-0.3000025448675481,0.51961377298239,0.5,-0.3951391875743866,-0.5265096426010132,0.3234294056892395,0.03195292130112648,-0.01787239871919155,0.34488537907600403,-0.4032694101333618,1.5464324951171875,4.101685047149658,-3.5969817638397217,4.377917289733887,-4.216963768005371,53411.0,48861.0,51132.0,49937.0,-0.29999491024331576,-0.5196181808098181,0.5
1.849,TAKEOFF,abrupt,1.0,0.5623961091041565,0.005797817837446928,0.22976036369800568,0.059176892042160034,0.07681924104690552,0.28901827335357666,0.3193456828594208,-0.29089659452438354,9.039693832397461,7.698525905609131,-0.978256106376648,-4.7263689041137695,54637.0,52256.0,57679.0,47673.0,0.6,0.0,0.5,-0.45902150869369507,0.5115238428115845,0.35241806507110596,0.007216885685920715,0.00974242389202118,0.3303481340408325,1.7386583089828491,0.5526118874549866,3.0391995906829834,-5.082721710205078,10.034181594848633,1.8577027320861816,50451.0,50277.0,50055.0,45296.0,-0.3000025448675481,0.51961377298239,0.5,-0.3951391875743866,-0.5265096426010132,0.3234294056892395,0.02574022300541401,-0.016195768490433693,0.34034857153892517,-0.4032694101333618,1.5464324951171875,4.101685047149658,-3.5969817638397217,4.377917289733887,-4.216963768005371,52833.0,48477.0,51345.0,50391.0,-0.29999491024331576,-0.5196181808098181,0.5
1.869,TAKEOFF,abrupt,1.0,0.5698912739753723,0.009216729551553726,0.26596957445144653,0.07993460446596146,0.04942622035741806,0.32653185725212097,0.7204200625419617,-0.3838755488395691,8.873455047607422,8.584559440612793,4.091289520263672,-5.295376300811768,55038.0,53725.0,55578.0,45781.0,0.6,0.0,0.5,-0.45902150869369507,0.5115238428115845,0.35241806507110596,0.005946536548435688,0.004424620885401964,0.32115527987480164,1.6400550603866577,0.35029923915863037,3.10381817817688,-4.299595832824707,9.738337516784668,-0.23530620336532593,50451.0,50277.0,50055.0,45296.0,-0.3000025448675481,0.51961377298239,0.5,-0.39212650060653687,-0.5280010104179382,0.3577556908130646,0.016803311184048653,-0.012586081400513649,0.32071131467819214,-0.5670019388198853,1.514029860496521,3.9181599617004395,-2.150980234146118,-3.8372609615325928,-5.014148712158203,53130.0,49614.0,51437.0,49497.0,-0.29999491024331576,-0.5196181808098181,0.5
1.889,TAKEOFF,abrupt,1.0,0.5698912739753723,0.009216729551553726,0.26596957445144653,0.08346159011125565,0.035436104983091354,0.33679574728012085,0.8815611600875854,-0.39473626017570496,8.724202156066895,3.3783555030822754,2.922752618789673,-6.31794548034668,54868.0,51936.0,56016.0,46603.0,0.6,0.0,0.5,-0.45902150869369507,0.5115238428115845,0.35241806507110596,0.010573399253189564,-0.006206874269992113,0.29833391308784485,1.5469534397125244,0.13288137316703796,3.1316914558410645,-6.940072536468506,4.882022857666016,0.5650776028633118,49815.0,50328.0,51023.0,45426.0,-0.3000025448675481,0.51961377298239,0.5,-0.39212650060653687,-0.5280010104179382,0.3577556908130646,0.011590084061026573,-0.012204852886497974,0.312693327665329,-0.624329149723053,1.6177349090576172,3.826395034790039,0.6103418469429016,-7.713982105255127,-4.478638172149658,52663.0,50653.0,51889.0,48413.0,-0.29999491024331576,-0.5196181808098181,0.5
1.91,TAKEOFF,abrupt,1.0,0.5698912739753723,0.009216729551553726,0.26596957445144653,0.07294443249702454,0.018468018621206284,0.33576032519340515,1.0843502283096313,-0.2652777433395386,8.588441848754883,0.25132426619529724,-5.158934593200684,-5.992487907409668,54935.0,52455.0,56187.0,45319.0,0.6,0.0,0.5,-0.4568197429180145,0.5113619565963745,0.3800404965877533,0.010871678590774536,-0.011117932386696339,0.2862512469291687,1.4041463136672974,0.011353417299687862,3.1317830085754395,-8.288257598876953,2.0617802143096924,1.332209825515747,50041.0,50138.0,51059.0,45714.0,-0.3000025448675481,0.51961377298239,0.5,-0.39212650060653687,-0.5280010104179382,0.3577556908130646,0.00183706427924335,-0.008276102133095264,0.3011932671070099,-0.6189193725585938,1.7732888460159302,3.7478458881378174,0.6308386325836182,-5.826568603515625,-4.033542633056641,52259.0,49917.0,52451.0,49277.0,-0.29999491024331576,-0.5196181808098181,0.5
1.929,TAKEOFF,abrupt,1.0,0.5698912739753723,0.009216729551553726,0.26596957445144653,0.07446945458650589,0.01436927542090416,0.3353542387485504,1.020611047744751,-0.160927414894104,8.482505798339844,-5.5694990158081055,-2.9939613342285156,-6.986258506774902,54365.0,52011.0,55412.0,47112.0,0.6,0.0,0.5,-0.4568197429180145,0.5113619565963745,0.3800404965877533,0.011101778596639633,-0.015540502034127712,0.2756970226764679,1.2270548343658447,-0.01967596635222435,3.1522433757781982,-7.440858840942383,1.7462140321731567,0.9172675609588623,51010.0,49291.0,49749.0,47029.0,-0.3000025448675481,0.51961377298239,0.5,-0.39212650060653687,-0.5280010104179382,0.3577556908130646,-0.004474500194191933,-0.0065526897087693214,0.2916266620159149,-0.6117590665817261,1.86522376537323,3.656148910522461,-1.1099971532821655,0.40862253308296204,-3.7960925102233887,52439.0,50110.0,52237.0,49165.0,-0.29999491024331576,-0.5196181808098181,0.5
1.949,TAKEOFF,abrupt,1.0,0.5721938610076904,0.010943259112536907,0.303262859582901,0.07651903480291367,0.011313985101878643,0.336003839969635,0.8753420114517212,-0.10113386809825897,8.396041870117188,-7.4318132400512695,-2.315498113632202,-6.423423767089844,55034.0,51814.0,55128.0,46197.0,0.6,0.0,0.5,-0.4568197429180145,0.5113619565963745,0.3800404965877533,0.011195219121873379,-0.01600128971040249,0.26649293303489685,1.0344737768173218,-0.03024127706885338,3.173438549041748,-5.018474102020264,8.299514770507812,-1.2206344604492188,50169.0,49309.0,50841.0,47114.0,-0.3000025448675481,0.51961377298239,0.5,-0.39212650060653687,-0.5280010104179382,0.3577556908130646,-0.0100920544937253,-0.006093894597142935,0.2807214856147766,-0.609602153301239,1.8258296251296997,3.5712196826934814,0.5923871994018555,6.4286675453186035,-3.419306755065918,53171.0,48516.0,51493.0,50834.0,-0.29999491024331576,-0.5196181808098181,0.5
1.969,TAKEOFF,abrupt,1.0,0.5721938610076904,0.010943259112536907,0.303262859582901,0.08117188513278961,0.012128151953220367,0.33103612065315247,0.6896152496337891,-0.09455499053001404,8.274161338806152,-7.269177436828613,-0.7856640815734863,-7.332347869873047,54776.0,51112.0,55241.0,47037.0,0.6,0.0,0.5,-0.4568197429180145,0.5113619565963745,0.3800404965877533,0.011566243134438992,-0.01929469406604767,0.25884851813316345,0.8971089124679565,-0.1370149701833725,3.1625988483428955,-8.253314018249512,7.245654582977295,-1.0561487674713135,50394.0,50372.0,50688.0,45754.0,-0.3000025448675481,0.51961377298239,0.5,-0.39438334107398987,-0.5284957885742188,0.3855113983154297,-0.01917426474392414,-0.004770017694681883,0.26664799451828003,-0.641366183757782,1.6836600303649902,3.501807689666748,-0.13531211018562317,10.154280662536621,-4.082967758178711,53281.0,49503.0,51428.0,50003.0,-0.29999491024331576,-0.5196181808098181,0.5
1.989,TAKEOFF,abrupt,1.0,0.5721938610076904,0.010943259112536907,0.303262859582901,0.08189865946769714,0.010484529659152031,0.3274948298931122,0.4510469436645508,-0.15984272956848145,8.179248809814453,-9.675806999206543,4.741610050201416,-5.078948020935059,55075.0,51121.0,54821.0,46953.0,0.6,0.0,0.5,-0.4568197429180145,0.5113619565963745,0.3800404965877533,0.012284209951758385,-0.022097162902355194,0.25206300616264343,0.7254406213760376,-0.26483699679374695,3.152559757232666,-5.83876371383667,3.9651455879211426,-0.73543381690979,49857.0,50713.0,50953.0,45369.0,-0.3000025448675481,0.51961377298239,0.5,-0.39438334107398987,-0.5284957885742188,0.3855113983154297,-0.027888521552085876,0.0011290280381217599,0.2593333125114441,-0.5733973979949951,1.3852583169937134,3.4335856437683105,-2.04575514793396,8.904520034790039,-3.6093766689300537,53105.0,49635.0,51726.0,49755.0,-0.29999491024331576,-0.5196181808098181,0.5
2.009,TAKEOFF,abrupt,1.0,0.5721938610076904,0.010943259112536907,0.303262859582901,0.07059197127819061,0.009352127090096474,0.3285244405269623,0.29663732647895813,-0.20398877561092377,8.069905281066895,-11.829297065734863,0.603296160697937,-6.9217729568481445,55557.0,50708.0,54126.0,47259.0,0.6,0.0,0.5,-0.45379623770713806,0.5089204907417297,0.40506821870803833,0.025382140651345253,-0.03640836104750633,0.22423268854618073,0.6472721695899963,-0.3539457619190216,3.1838765144348145,-1.9846261739730835,2.9038050174713135,-0.13239319622516632,49689.0,50910.0,51672.0,45663.0,-0.3000025448675481,0.51961377298239,0.5,-0.39438334107398987,-0.5284957885742188,0.3855113983154297,-0.021500026807188988,-0.009410311467945576,0.25201913714408875,-0.5403345227241516,1.1924344301223755,3.3337900638580322,-0.9872255325317383,5.428616523742676,-3.0137875080108643,52899.0,50182.0,51759.0,49471.0,-0.29999491024331576,-0.5196181808098181,0.5
2.029,TAKEOFF,abrupt,1.0,0.5721938610076904,0.010943259112536907,0.303262859582901,0.0714753270149231,0.009095893241465092,0.3210420310497284,0.07801175862550735,-0.29608967900276184,8.014883995056152,-5.637567043304443,1.7368367910385132,-6.151394844055176,54864.0,51074.0,54697.0,46639.0,0.6,0.0,0.5,-0.45379623770713806,0.5089204907417297,0.40506821870803833,0.025382140651345253,-0.03640836104750633,0.22423268854618073,0.7128370404243469,-0.4224317967891693,3.187418222427368,-2.3363547325134277,-4.3568434715271,-0.37689530849456787,50198.0,50512.0,51182.0,46186.0,-0.3000025448675481,0.51961377298239,0.5,-0.39438334107398987,-0.5284957885742188,0.3855113983154297,-0.020542535930871964,-0.011913808062672615,0.2491571605205536,-0.5590634942054749,1.1030606031417847,3.2493631839752197,-0.702829122543335,1.914626955986023,-2.7613987922668457,53476.0,49724.0,50999.0,49817.0,-0.29999491024331576,-0.5196181808098181,0.5
2.049,TAKEOFF,abrupt,1.0,0.5721938610076904,0.010943259112536907,0.303262859582901,0.0714753270149231,0.009095893241465092,0.3210420310497284,0.022124672308564186,-0.35636427998542786,7.888238906860352,0.878235936164856,1.5807607173919678,-7.111962795257568,55345.0,50761.0,54094.0,47104.0,0.6,0.0,0.5,-0.45379623770713806,0.5089204907417297,0.40506821870803833,0.02685360610485077,-0.03865428268909454,0.21719445288181305,0.656258225440979,-0.3439357876777649,3.171977996826172,-4.7597174644470215,-4.770344257354736,-0.4655674993991852,50198.0,50512.0,51182.0,46186.0,-0.3000025448675481,0.51961377298239,0.5,-0.39438334107398987,-0.5284957885742188,0.3855113983154297,-0.02434767410159111,-0.010306806303560734,0.2406115084886551,-0.5590634942054749,1.1030606031417847,3.2493631839752197,-0.702829122543335,1.914626955986023,-2.7613987922668457,52924.0,49661.0,51702.0,49847.0,-0.29999491024331576,-0.5196181808098181,0.5
2.07,TAKEOFF,abrupt,1.0,0.5811919569969177,0.01340830884873867,0.3360857367515564,0.09381014108657837,0.005134433042258024,0.3081560730934143,0.07416551560163498,-0.5853510499000549,7.72504186630249,-0.1579827070236206,5.212835788726807,-5.392046928405762,55345.0,50761.0,54094.0,47104.0,0.6,0.0,0.5,-0.45379623770713806,0.5089204907417297,0.40506821870803833,0.043633658438920975,-0.04902829974889755,0.19814053177833557,0.6313670873641968,-0.3434552252292633,3.116352081298828,-4.318017482757568,-2.743690013885498,-0.9056968092918396,52048.0,50157.0,49450.0,47356.0,-0.3000025448675481,0.51961377298239,0.5,-0.3985860049724579,-0.5278244614601135,0.4102848768234253,-0.04986089468002319,0.009170220233500004,0.2251988798379898,-0.7412787079811096,1.2066738605499268,3.2163312435150146,-0.37160614132881165,0.17234717309474945,-2.6725246906280518,52300.0,51079.0,52628.0,48660.0,-0.29999491024331576,-0.5196181808098181,0.5
2.09,TAKEOFF,abrupt,1.0,0.5811919569969177,0.01340830884873867,0.3360857367515564,0.09916231036186218,0.013539725914597511,0.3002683222293854,-0.07014185935258865,-0.6168922781944275,7.662851810455322,0.7633061408996582,-2.0158190727233887,-7.508288860321045,54006.0,52367.0,54290.0,46289.0,0.6,0.0,0.5,-0.45379623770713806,0.5089204907417297,0.40506821870803833,0.042302604764699936,-0.051250096410512924,0.1962963044643402,0.5044156312942505,-0.30941009521484375,3.069655179977417,-9.825923919677734,-1.5680419206619263,-1.2576719522476196,50188.0,50636.0,51514.0,46559.0,-0.3000025448675481,0.51961377298239,0.5,-0.3985860049724579,-0.5278244614601135,0.4102848768234253,-0.042096465826034546,0.005847177468240261,0.21147868037223816,-0.6207452416419983,1.125799298286438,3.137258768081665,1.6211386919021606,3.6642229557037354,-1.5282589197158813,52418.0,50615.0,52423.0,49279.0,-0.29999491024331576,-0.5196181808098181,0.5
2.109,TAKEOFF,abrupt,1.0,0.5811919569969177,0.01340830884873867,0.3360857367515564,0.09715864807367325,0.030326029285788536,0.2910059988498688,-0.043265897780656815,-0.5331981182098389,7.47894811630249,-0.1506333202123642,-9.13461685180664,-7.075113296508789,55507.0,52933.0,52873.0,45633.0,0.6,0.0,0.5,-0.44723960757255554,0.5032551884651184,0.4232902228832245,0.04286191612482071,-0.05206436291337013,0.19333632290363312,0.2890474498271942,-0.2527179718017578,3.0307600498199463,-12.111390113830566,-5.048694133758545,-1.7100598812103271,50136.0,51764.0,51858.0,45468.0,-0.3000025448675481,0.51961377298239,0.5,-0.3985860049724579,-0.5278244614601135,0.4102848768234253,-0.042096465826034546,0.005847177468240261,0.21147868037223816,-0.573031485080719,1.0261856317520142,3.102499485015869,2.0473859310150146,8.296083450317383,-1.2673481702804565,53293.0,49754.0,51877.0,50127.0,-0.29999491024331576,-0.5196181808098181,0.5
2.129,TAKEOFF,abrupt,1.0,0.5811919569969177,0.01340830884873867,0.3360857367515564,0.0914812684059143,0.04130309820175171,0.2877242863178253,-0.13836601376533508,-0.1929263174533844,7.337558269500732,2.2746291160583496,-9.001769065856934,-6.788984298706055,53491.0,51951.0,55717.0,45843.0,0.6,0.0,0.5,-0.44723960757255554,0.5032551884651184,0.4232902228832245,0.04944968596100807,-0.05418587476015091,0.17888955771923065,0.03458092734217644,-0.15026673674583435,2.9778859615325928,-10.194730758666992,-11.46629810333252,-1.4070656299591064,49685.0,50864.0,52439.0,46889.0,-0.3000025448675481,0.51961377298239,0.5,-0.3985860049724579,-0.5278244614601135,0.4102848768234253,-0.04917985573410988,0.009332967922091484,0.19606167078018188,-0.5248504877090454,0.8150866627693176,3.0730533599853516,0.2525334358215332,14.086133003234863,-1.0225024223327637,53570.0,49952.0,51708.0,49956.0,-0.29999491024331576,-0.5196181808098181,0.5
2.149,TAKEOFF,abrupt,1.0,0.5885025262832642,0.021523263305425644,0.36695095896720886,0.09216140955686569,0.041929278522729874,0.2812991738319397,-0.13836601376533508,-0.1929263174533844,7.337558269500732,2.2746291160583496,-9.001769065856934,-6.788984298706055,54155.0,51685.0,55027.0,46065.0,0.6,0.0,0.5,-0.44723960757255554,0.5032551884651184,0.4232902228832245,0.03345184773206711,-0.04380277171730995,0.17944742739200592,-0.25047603249549866,0.17047296464443207,2.9685471057891846,-9.883487701416016,-10.186319351196289,-1.3328040838241577,49832.0,50462.0,51878.0,46931.0,-0.3000025448675481,0.51961377298239,0.5,-0.3985860049724579,-0.5278244614601135,0.4102848768234253,-0.051755547523498535,0.010932025499641895,0.18990734219551086,-0.5265076160430908,0.515629231929779,3.0470519065856934,-0.3618670701980591,13.20931625366211,-0.6809400320053101,54234.0,48767.0,51015.0,51164.0,-0.29999491024331576,-0.5196181808098181,0.5
2.169,TAKEOFF,abrupt,1.0,0.5885025262832642,0.021523263305425644,0.36695095896720886,0.09230633080005646,0.042287684977054596,0.27457940578460693,-0.08480863273143768,-0.00012260032235644758,7.2034502029418945,1.9135832786560059,-12.101101875305176,-5.114245414733887,55605.0,51164.0,53556.0,46652.0,0.6,0.0,0.5,-0.44723960757255554,0.5032551884651184,0.4232902228832245,0.030880477279424667,-0.03939147666096687,0.17893575131893158,-0.3923683166503906,0.29603639245033264,2.9858059883117676,-8.499762535095215,-7.651860237121582,-1.7395762205123901,49832.0,50462.0,51878.0,46931.0,-0.3000025448675481,0.51961377298239,0.5,-0.40035295486450195,-0.5271503329277039,0.4305382966995239,-0.051755547523498535,0.010932025499641895,0.18990734219551086,-0.7120394110679626,0.4569260776042938,3.0482001304626465,-0.1585504114627838,10.850348472595215,-2.0067806243896484,53524.0,49513.0,52386.0,49959.0,-0.29999491024331576,-0.5196181808098181,0.5
2.189,TAKEOFF,abrupt,1.0,0.5885025262832642,0.021523263305425644,0.36695095896720886,0.09050998091697693,0.02694711461663246,0.27720996737480164,0.03110203519463539,0.27737635374069214,7.082080841064453,3.2175121307373047,-6.139472484588623,-7.928674697875977,53637.0,53127.0,54343.0,45336.0,0.6,0.0,0.5,-0.44723960757255554,0.5032551884651184,0.4232902228832245,0.03605899214744568,-0.043449319899082184,0.1710226982831955,-0.5010183453559875,0.43408074975013733,2.8856728076934814,-3.0331249237060547,-2.6292026042938232,-2.860961675643921,50444.0,50239.0,51269.0,47572.0,-0.3000025448675481,0.51961377298239,0.5,-0.40035295486450195,-0.5271503329277039,0.4305382966995239,-0.07821153849363327,0.0387193039059639,0.1789306104183197,-0.6983566880226135,0.3214269280433655,3.020630121231079,0.7948484420776367,6.495272636413574,-2.680765151977539,53231.0,49290.0,52617.0,50675.0,-0.29999491024331576,-0.5196181808098181,0.5
2.209,TAKEOFF,abrupt,1.0,0.5885025262832642,0.021523263305425644,0.36695095896720886,0.09206593781709671,0.025856077671051025,0.26547813415527344,0.20311123132705688,0.3161059319972992,6.887364864349365,6.268208980560303,-8.318439483642578,-5.094947338104248,54725.0,51680.0,53396.0,46863.0,0.6,0.0,0.5,-0.44572779536247253,0.5019514560699463,0.4423813819885254,0.034258294850587845,-0.04087166488170624,0.17084567248821259,-0.5904660224914551,0.503189742565155,2.791602611541748,-3.998610734939575,2.568619728088379,-2.941638708114624,50444.0,50239.0,51269.0,47572.0,-0.3000025448675481,0.51961377298239,0.5,-0.40035295486450195,-0.5271503329277039,0.4305382966995239,-0.08145610243082047,0.04225785285234451,0.17162872850894928,-0.6158649921417236,0.2128581404685974,2.968709945678711,7.350645542144775,6.092906951904297,-2.302877187728882,52996.0,50148.0,52580.0,50373.0,-0.29999491024331576,-0.5196181808098181,0.5
2.229,TAKEOFF,abrupt,1.0,0.5885025262832642,0.021523263305425644,0.36695095896720886,0.08869307488203049,0.02272164076566696,0.2669018507003784,0.33890974521636963,0.49460336565971375,6.712903022766113,2.71069598197937,-8.373702049255371,-4.628368854522705,54981.0,52086.0,53009.0,46108.0,0.6,0.0,0.5,-0.44572779536247253,0.5019514560699463,0.4423813819885254,0.03251034766435623,-0.03891352564096451,0.16700120270252228,-0.6513522863388062,0.4494505524635315,2.728238344192505,0.3384830951690674,1.798000693321228,-2.3270809650421143,50716.0,51140.0,50899.0,46333.0,-0.3000025448675481,0.51961377298239,0.5,-0.40035295486450195,-0.5271503329277039,0.4305382966995239,-0.08255438506603241,0.04450123757123947,0.16660290956497192,-0.17417094111442566,-0.030049562454223633,2.933486223220825,12.80048942565918,9.236605644226074,-1.2972304821014404,53261.0,49370.0,52386.0,51109.0,-0.29999491024331576,-0.5196181808098181,0.5
2.249,TAKEOFF,abrupt,1.0,0.5990557074546814,0.021436598151922226,0.39583784341812134,0.0883093997836113,0.021937787532806396,0.2557392120361328,0.4673379957675934,0.5535106658935547,6.546727180480957,5.0325093269348145,-1.0568076372146606,-5.436356544494629,54130.0,51616.0,54625.0,45792.0,0.6,0.0,0.5,-0.44572779536247253,0.5019514560699463,0.4423813819885254,0.03605956956744194,-0.03729303926229477,0.16064734756946564,-0.6448849439620972,0.3692794144153595,2.6377127170562744,1.5064342021942139,1.6070337295532227,-1.6372699737548828,50476.0,51221.0,51135.0,46046.0,-0.3000025448675481,0.51961377298239,0.5,-0.40035295486450195,-0.5271503329277039,0.4305382966995239,-0.06061780825257301,0.00757247069850564,0.1696239858865738,0.026376374065876007,-0.18462491035461426,2.91292405128479,14.900035858154297,7.964438438415527,-1.7863129377365112,54318.0,51063.0,51036.0,49223.0,-0.29999491024331576,-0.5196181808098181,0.5
2.269,TAKEOFF,abrupt,1.0,0.5990557074546814,0.021436598151922226,0.39583784341812134,0.08664042502641678,0.020686889067292213,0.24930813908576965,0.5336145162582397,0.5617064833641052,6.393365859985352,-4.7661051750183105,-4.376829624176025,-4.606985092163086,54987.0,51965.0,53686.0,45682.0,0.6,0.0,0.5,-0.44572779536247253,0.5019514560699463,0.4423813819885254,0.02566327340900898,-0.027349529787898064,0.16322284936904907,-0.6630880236625671,0.42421644926071167,2.653337001800537,4.819680690765381,-2.0338330268859863,-1.741944670677185,51242.0,51246.0,50160.0,45821.0,-0.3000025448675481,0.51961377298239,0.5,-0.4073614478111267,-0.5284578800201416,0.44977501034736633,-0.06431323289871216,0.012608458288013935,0.16023392975330353,0.2715889513492584,-0.3197886347770691,2.9143946170806885,12.361729621887207,6.566398620605469,-1.035635232925415,53840.0,50717.0,51508.0,49351.0,-0.29999491024331576,-0.5196181808098181,0.5
2.289,TAKEOFF,abrupt,1.0,0.5990557074546814,0.021436598151922226,0.39583784341812134,0.07703657448291779,0.051501061767339706,0.2619653046131134,0.5110257863998413,0.6147888898849487,6.22367525100708,-3.8475024700164795,-2.3931398391723633,-4.968447208404541,54618.0,52035.0,54077.0,45515.0,0.6,0.0,0.5,-0.44572779536247253,0.5019514560699463,0.4423813819885254,0.021798105910420418,-0.021058136597275734,0.16625149548053741,-0.6227775812149048,0.457626610994339,2.68208646774292,4.302829265594482,-1.0064153671264648,-2.309330701828003,51242.0,51246.0,50160.0,45821.0,-0.3000025448675481,0.51961377298239,0.5,-0.4073614478111267,-0.5284578800201416,0.44977501034736633,-0.06431323289871216,0.012608458288013935,0.16023392975330353,0.4869958758354187,-0.4522227346897125,2.898848295211792,2.6759214401245117,5.118948459625244,-0.9551964998245239,53416.0,50286.0,52066.0,50045.0,-0.29999491024331576,-0.5196181808098181,0.5
2.309,TAKEOFF,abrupt,1.0,0.5990557074546814,0.021436598151922226,0.39583784341812134,0.06165488436818123,0.04928060248494148,0.2614890933036804,0.2555510699748993,0.856247067451477,6.199717998504639,-2.7354214191436768,-7.455130100250244,-5.330455780029297,52968.0,52706.0,55208.0,43687.0,0.6,0.0,0.5,-0.44543081521987915,0.5039230585098267,0.4597041606903076,0.02035963349044323,-0.012550834566354752,0.16345985233783722,-0.6181313991546631,0.4928409159183502,2.6629157066345215,-2.4654154777526855,0.31908154487609863,-1.6025246381759644,49222.0,49985.0,52045.0,47269.0,-0.3000025448675481,0.51961377298239,0.5,-0.4073614478111267,-0.5284578800201416,0.44977501034736633,-0.06285588443279266,0.011221254244446754,0.15409184992313385,0.599064290523529,-0.6272349953651428,2.8720977306365967,-6.372874736785889,7.491710662841797,0.17426078021526337,52880.0,49107.0,52855.0,51026.0,-0.29999491024331576,-0.5196181808098181,0.5
2.329,TAKEOFF,abrupt,1.0,0.5990557074546814,0.021436598151922226,0.39583784341812134,0.07467454671859741,0.05096079781651497,0.2553684711456299,0.15338914096355438,0.9821597933769226,6.082336902618408,2.7163944244384766,-3.8461296558380127,-4.959666728973389,55143.0,51020.0,52967.0,45903.0,0.6,0.0,0.5,-0.44543081521987915,0.5039230585098267,0.4597041606903076,0.018238047137856483,-0.007971400395035744,0.15184634923934937,-0.6103648543357849,0.46884608268737793,2.578108310699463,-0.6675489544868469,2.0535855293273926,-1.9255388975143433,51293.0,51277.0,50136.0,45895.0,-0.3000025448675481,0.51961377298239,0.5,-0.4073614478111267,-0.5284578800201416,0.44977501034736633,-0.052958857268095016,0.0014617100823670626,0.14970281720161438,0.4740683138370514,-0.7582917213439941,2.8486649990081787,-11.419282913208008,7.7428975105285645,-0.9875943064689636,53216.0,48823.0,52439.0,51380.0,-0.29999491024331576,-0.5196181808098181,0.5
2.349,TAKEOFF,abrupt,1.0,0.6057695746421814,0.032545480877161026,0.4261949062347412,0.07154769450426102,0.05016361549496651,0.24784894287586212,0.15338914096355438,0.9821597933769226,6.082336902618408,2.7163944244384766,-3.8461296558380127,-4.959666728973389,53977.0,50735.0,54024.0,46208.0,0.6,0.0,0.5,-0.44543081521987915,0.5039230585098267,0.4597041606903076,0.018238047137856483,-0.007971400395035744,0.15184634923934937,-0.575080931186676,0.4444529116153717,2.519310712814331,7.163732051849365,2.0741186141967773,-2.8819077014923096,50634.0,51693.0,50992.0,45590.0,-0.3000025448675481,0.51961377298239,0.5,-0.4073614478111267,-0.5284578800201416,0.44977501034736633,-0.04155789315700531,-0.0033136114943772554,0.14265847206115723,0.2732633054256439,-0.9468396306037903,2.8391342163085938,-13.266814231872559,3.919203281402588,-2.286604404449463,53293.0,48999.0,51959.0,51528.0,-0.29999491024331576,-0.5196181808098181,0.5
2.37,TAKEOFF,abrupt,1.0,0.6057695746421814,0.032545480877161026,0.4261949062347412,0.08211605995893478,0.052358899265527725,0.24781905114650726,0.23455695807933807,1.0088708400726318,5.988861083984375,6.15257453918457,0.209719717502594,-4.3649983406066895,55364.0,50439.0,52507.0,46439.0,0.6,0.0,0.5,-0.44543081521987915,0.5039230585098267,0.4597041606903076,0.01827651634812355,-0.005529565736651421,0.13474783301353455,-0.4001190960407257,0.4083910882472992,2.5030102729797363,8.788702011108398,-2.337871789932251,-1.7298699617385864,50780.0,51269.0,50790.0,46340.0,-0.3000025448675481,0.51961377298239,0.5,-0.41314446926116943,-0.5270494222640991,0.4634140133857727,-0.04155789315700531,-0.0033136114943772554,0.14265847206115723,0.03879697993397713,-1.0470023155212402,2.796358346939087,-9.558111190795898,1.8662282228469849,-2.063894271850586,52809.0,48878.0,52286.0,51884.0,-0.29999491024331576,-0.5196181808098181,0.5
2.389,TAKEOFF,abrupt,1.0,0.6057695746421814,0.032545480877161026,0.4261949062347412,0.07666979730129242,0.05564359948039055,0.242635577917099,0.3980819582939148,0.8647077679634094,5.916188716888428,9.088845252990723,0.18286298215389252,-4.337977886199951,55258.0,50729.0,52595.0,45813.0,0.6,0.0,0.5,-0.44543081521987915,0.5039230585098267,0.4597041606903076,0.018067825585603714,-0.004326969850808382,0.12775667011737823,-0.28423434495925903,0.42899230122566223,2.473935127258301,9.007756233215332,0.9969161152839661,-2.4105913639068604,50936.0,51314.0,50770.0,46381.0,-0.3000025448675481,0.51961377298239,0.5,-0.41314446926116943,-0.5270494222640991,0.4634140133857727,-0.05381946638226509,0.019888240844011307,0.1258622109889984,-0.3229345679283142,-0.9574928879737854,2.7513887882232666,-3.490877866744995,-1.5016025304794312,-1.1512278318405151,53336.0,49599.0,52473.0,50871.0,-0.29999491024331576,-0.5196181808098181,0.5
2.409,TAKEOFF,abrupt,1.0,0.6057695746421814,0.032545480877161026,0.4261949062347412,0.07406765222549438,0.05381925776600838,0.23086054623126984,0.5253433585166931,0.846505343914032,5.902439594268799,10.329092979431152,-0.9710834622383118,-4.802441596984863,54049.0,50272.0,53758.0,46433.0,0.6,0.0,0.5,-0.4429408311843872,0.5034865140914917,0.4725756347179413,0.018067825585603714,-0.004326969850808382,0.12775667011737823,-0.13079625368118286,0.4387844502925873,2.39044451713562,5.639217376708984,0.7885952591896057,-2.274447441101074,50622.0,51217.0,51068.0,46611.0,-0.3000025448675481,0.51961377298239,0.5,-0.41314446926116943,-0.5270494222640991,0.4634140133857727,-0.05381946638226509,0.019888240844011307,0.1258622109889984,-0.3849543333053589,-0.9355893135070801,2.697925567626953,-0.6227171421051025,-5.062839508056641,-1.6429136991500854,52386.0,50584.0,53125.0,50457.0,-0.29999491024331576,-0.5196181808098181,0.5
2.429,TAKEOFF,abrupt,1.0,0.6057695746421814,0.032545480877161026,0.4261949062347412,0.08686143904924393,0.043273068964481354,0.2321317046880722,0.726166307926178,0.8757706880569458,5.818513870239258,10.540181159973145,-2.486842155456543,-3.6178171634674072,54580.0,51410.0,53355.0,45035.0,0.6,0.0,0.5,-0.4429408311843872,0.5034865140914917,0.4725756347179413,0.016593605279922485,-0.004001989960670471,0.12217532843351364,-0.031281039118766785,0.41084250807762146,2.34169340133667,3.8352162837982178,3.764583110809326,-2.0052080154418945,49343.0,51175.0,52305.0,46745.0,-0.3000025448675481,0.51961377298239,0.5,-0.41314446926116943,-0.5270494222640991,0.4634140133857727,-0.03912182152271271,0.01910940743982792,0.11611383408308029,-0.38795599341392517,-0.9409105777740479,2.6653730869293213,2.250596046447754,-2.3951990604400635,-2.4728691577911377,52644.0,50397.0,52744.0,50997.0,-0.29999491024331576,-0.5196181808098181,0.5
2.449,TAKEOFF,abrupt,1.0,0.6130168437957764,0.03541416674852371,0.4516739547252655,0.06923877447843552,0.018336698412895203,0.2168314903974533,1.0821168422698975,0.9614353179931641,5.752738952636719,8.199775695800781,-4.555569648742676,-3.9455528259277344,53914.0,51459.0,54001.0,45045.0,0.6,0.0,0.5,-0.4429408311843872,0.5034865140914917,0.4725756347179413,0.015292475000023842,-0.004002942703664303,0.11733917891979218,0.03495068848133087,0.34154012799263,2.3002822399139404,-0.4301038384437561,-1.866791009902954,-2.140089273452759,49343.0,51175.0,52305.0,46745.0,-0.3000025448675481,0.51961377298239,0.5,-0.41314446926116943,-0.5270494222640991,0.4634140133857727,-0.03912182152271271,0.01910940743982792,0.11611383408308029,-0.3709847033023834,-0.8987841010093689,2.6099283695220947,4.749327659606934,0.9332206845283508,-2.208451747894287,53394.0,50824.0,52032.0,50603.0,-0.29999491024331576,-0.5196181808098181,0.5
2.469,TAKEOFF,abrupt,1.0,0.6130168437957764,0.03541416674852371,0.4516739547252655,0.0662246122956276,0.013799434527754784,0.20715917646884918,1.3872803449630737,1.2220275402069092,5.601034641265869,0.5397586822509766,-9.288724899291992,-4.430473804473877,54210.0,51289.0,53608.0,45299.0,0.6,0.0,0.5,-0.4429408311843872,0.5034865140914917,0.4725756347179413,0.014161139726638794,-0.004181945230811834,0.11402473598718643,0.05907368287444115,0.35274431109428406,2.2621772289276123,4.181415557861328,-1.4973313808441162,-1.2591887712478638,51006.0,51331.0,50859.0,46558.0,-0.3000025448675481,0.51961377298239,0.5,-0.41804784536361694,-0.5247511267662048,0.4752561151981354,-0.028526797890663147,0.020719513297080994,0.11034347116947174,-0.24274739623069763,-0.9356687664985657,2.596334457397461,6.973498344421387,1.7773239612579346,-2.3082542419433594,53235.0,50624.0,52257.0,50560.0,-0.29999491024331576,-0.5196181808098181,0.5
2.49,TAKEOFF,abrupt,1.0,0.6130168437957764,0.03541416674852371,0.4516739547252655,0.06281591206789017,0.0090198228135705,0.1958247572183609,1.3531663417816162,1.3557137250900269,5.536995887756348,-3.1558663845062256,-7.273144245147705,-3.015296220779419,53567.0,51621.0,54274.0,44997.0,0.6,0.0,0.5,-0.4429408311843872,0.5034865140914917,0.4725756347179413,0.01715894229710102,-0.0033535356633365154,0.10563503205776215,0.09077446907758713,0.34432554244995117,2.1966724395751953,2.2296671867370605,0.5578905344009399,-1.2096894979476929,51449.0,50573.0,50597.0,47815.0,-0.3000025448675481,0.51961377298239,0.5,-0.41804784536361694,-0.5247511267662048,0.4752561151981354,-0.025356415659189224,0.021334584802389145,0.10676374286413193,-0.10317821800708771,-0.9607537984848022,2.5510644912719727,7.8108720779418945,0.5412909984588623,-2.369394063949585,53549.0,50788.0,51756.0,50885.0,-0.29999491024331576,-0.5196181808098181,0.5
2.509,TAKEOFF,abrupt,1.0,0.6130168437957764,0.03541416674852371,0.4516739547252655,0.05435540899634361,0.01690501719713211,0.18961380422115326,1.3531663417816162,1.3557137250900269,5.536995887756348,-3.1558663845062256,-7.273144245147705,-3.015296220779419,53996.0,49782.0,55171.0,45651.0,0.6,0.0,0.5,-0.44065552949905396,0.5033412575721741,0.4826793968677521,0.01761167123913765,-0.003335293848067522,0.10233055055141449,0.15032733976840973,0.3378458321094513,2.134188175201416,2.9309613704681396,4.094161510467529,-1.6286002397537231,51138.0,51246.0,50867.0,47092.0,-0.3000025448675481,0.51961377298239,0.5,-0.41804784536361694,-0.5247511267662048,0.4752561151981354,-0.025356415659189224,0.021334584802389145,0.10676374286413193,0.05372592806816101,-0.980281412601471,2.5012643337249756,6.390112400054932,0.3004855811595917,-1.6063863039016724,53559.0,50893.0,51933.0,50707.0,-0.29999491024331576,-0.5196181808098181,0.5
2.53,TAKEOFF,abrupt,1.0,0.6130168437957764,0.03541416674852371,0.4516739547252655,0.036291275173425674,0.002277315827086568,0.18165606260299683,1.0455421209335327,1.61373770236969,5.495004177093506,-7.200840950012207,4.587331771850586,-0.298029363155365,52988.0,51296.0,54903.0,45493.0,0.6,0.0,0.5,-0.44065552949905396,0.5033412575721741,0.4826793968677521,0.016527248546481133,-0.003939091693609953,0.1005096435546875,0.1921263486146927,0.30075782537460327,2.1079580783843994,1.208870768547058,1.0237083435058594,-1.8481909036636353,51166.0,50887.0,51000.0,47455.0,-0.3000025448675481,0.51961377298239,0.5,-0.41804784536361694,-0.5247511267662048,0.4752561151981354,-0.04110602289438248,0.05149159952998161,0.08719084411859512,-0.057961635291576385,-0.8121862411499023,2.4952476024627686,5.0059309005737305,-1.3355157375335693,-0.6578006148338318,53545.0,49867.0,52256.0,51460.0,-0.29999491024331576,-0.5196181808098181,0.5
2.549,TAKEOFF,abrupt,1.0,0.6152423620223999,0.036284998059272766,0.47254058718681335,0.03137051314115524,-0.0017790185520425439,0.1735689789056778,1.0455421209335327,1.61373770236969,5.495004177093506,-7.200840950012207,4.587331771850586,-0.298029363155365,54022.0,50775.0,54230.0,45930.0,0.6,0.0,0.5,-0.44065552949905396,0.5033412575721741,0.4826793968677521,0.016929369419813156,-0.004177642520517111,0.09650341421365738,0.18862418830394745,0.2708456218242645,2.04679274559021,2.242604970932007,0.07065420597791672,-0.4016515910625458,49966.0,51642.0,52390.0,46616.0,-0.3000025448675481,0.51961377298239,0.5,-0.41804784536361694,-0.5247511267662048,0.4752561151981354,-0.04110602289438248,0.05149159952998161,0.08719084411859512,0.06810019910335541,-0.8589481711387634,2.4830970764160156,4.543931007385254,-0.9503571391105652,-1.5234123468399048,53474.0,50311.0,52763.0,51518.0,-0.29999491024331576,-0.5196181808098181,0.5
