timestamp_sec,flight_state,cf1_X,cf1_Y,cf1_Z,cf1_VelX,cf1_VelY,cf1_VelZ,cf1_Roll,cf1_Pitch,cf1_Yaw,cf1_GyroX,cf1_GyroY,cf1_GyroZ,cf1_Motor1,cf1_Motor2,cf1_Motor3,cf1_Motor4,cf1_targ_x,cf1_targ_y,cf1_targ_z,cf2_X,cf2_Y,cf2_Z,cf2_VelX,cf2_VelY,cf2_VelZ,cf2_Roll,cf2_Pitch,cf2_Yaw,cf2_GyroX,cf2_GyroY,cf2_GyroZ,cf2_Motor1,cf2_Motor2,cf2_Motor3,cf2_Motor4,cf2_targ_x,cf2_targ_y,cf2_targ_z,cf3_X,cf3_Y,cf3_Z,cf3_VelX,cf3_VelY,cf3_VelZ,cf3_Roll,cf3_Pitch,cf3_Yaw,cf3_GyroX,cf3_GyroY,cf3_GyroZ,cf3_Motor1,cf3_Motor2,cf3_Motor3,cf3_Motor4,cf3_targ_x,cf3_targ_y,cf3_targ_z
0.011,TAKEOFF,0.09249507635831833,0.7642506957054138,-0.019229669123888016,0.0,0.0,0.0,-0.005535082425922155,-0.004151311703026295,-0.10931787639856339,0.0,0.0,0.0,0.0,0.0,0.0,0.0,0.6344342385228733,0.34309293655487405,0.5,-0.7356786131858826,-0.26679182052612305,-0.02873275801539421,0.0,0.0,0.0,0.027675412595272064,0.019372789189219475,-0.15083099901676178,0.0,0.0,0.0,0.0,0.0,0.0,0.0,0.7744535901331218,1.1179368483418448,0.5,0.7371538281440735,-0.8955838084220886,-0.03581525385379791,0.0,0.0,0.0,0.0013837706064805388,0.0,-0.13699328899383545,0.0,0.0,0.0,0.0,0.0,0.0,0.0,0.5769109486011774,0.8276765014479905,0.5
0.03,TAKEOFF,0.06258818507194519,0.7371309995651245,-0.0207078754901886,0.0,0.0,0.0,0.00830262340605259,-0.009686394594609737,-0.10931787639856339,0.0,0.0,0.0,0.0,0.0,0.0,0.0,0.6344559080569767,0.34305653735151226,0.5,-0.7356786131858826,-0.26679182052612305,-0.02873275801539421,0.0,0.0,0.0,0.027675412595272064,0.019372789189219475,-0.15083099901676178,0.0,0.0,0.0,0.0,0.0,0.0,0.0,0.7743811287535411,1.1178786846646642,0.5,0.7371538281440735,-0.8955838084220886,-0.03581525385379791,0.0,0.0,0.0,0.0013837706064805388,0.0,-0.13699328899383545,0.0,0.0,0.0,0.0,0.0,0.0,0.0,0.5769193656791881,0.8277036481517923,0.5
0.051,TAKEOFF,0.06258818507194519,0.7371309995651245,-0.0207078754901886,0.0,0.0,0.0,0.00830262340605259,-0.009686394594609737,-0.10931787639856339,0.0,0.0,0.0,0.0,0.0,0.0,0.0,0.6344774501205958,0.34302035805963094,0.5,-0.7356786131858826,-0.26679182052612305,-0.02873275801539421,0.0,0.0,0.0,0.027675412595272064,0.019372789189219475,-0.15083099901676178,0.0,0.0,0.0,0.0,0.0,0.0,0.0,0.7742314642936499,1.1177584927856528,0.5,0.7371538281440735,-0.8955838084220886,-0.03581525385379791,0.0,0.0,0.0,0.0013837706064805388,0.0,-0.13699328899383545,0.0,0.0,0.0,0.0,0.0,0.0,0.0,0.5769277335290952,0.8277306315802102,0.5
0.071,TAKEOFF,0.06258818507194519,0.7371309995651245,-0.0207078754901886,0.0,0.0,0.0,0.00830262340605259,-0.009686394594609737,-0.10931787639856339,0.0,0.0,0.0,0.0,0.0,0.0,0.0,0.6344988654479795,0.3429843973417969,0.5,-0.7356786131858826,-0.26679182052612305,-0.02873275801539421,0.0,0.0,0.0,0.027675412595272064,0.019372789189219475,-0.15083099901676178,0.0,0.0,0.0,0.0,0.0,0.0,0.0,0.7740827359344729,1.1176389746134177,0.5,0.7371538281440735,-0.8955838084220886,-0.03581525385379791,0.0,0.0,0.0,0.0013837706064805388,0.0,-0.13699328899383545,0.0,0.0,0.0,0.0,0.0,0.0,0.0,0.5769360524310024,0.827757452717565,0.5
0.09,TAKEOFF,0.06258818507194519,0.7371309995651245,-0.0207078754901886,0.0,0.0,0.0,0.00830262340605259,-0.009686394594609737,-0.10931787639856339,0.0,0.0,0.0,0.0,0.0,0.0,0.0,0.6345201547693387,0.34294865386881374,0.5,-0.7527941465377808,-0.2934033274650574,-0.12318797409534454,0.0,0.0,0.0,0.029059182852506638,0.01660524681210518,-0.15359853208065033,0.0,0.0,0.0,0.0,0.0,0.0,0.0,0.7739349376183153,1.117520126685322,0.5,0.7398813366889954,-0.8956341743469238,-0.03458721563220024,0.0,0.0,0.0,-0.0027675412129610777,-0.005535082425922155,-0.13699328899383545,0.0,0.0,0.0,0.0,0.0,0.0,0.0,0.5769443226635159,0.8277841125422165,0.5
0.11,TAKEOFF,0.06258818507194519,0.7371309995651245,-0.0207078754901886,0.0,0.0,0.0,0.00830262340605259,-0.009686394594609737,-0.10931787639856339,0.0,0.0,0.0,0.0,0.0,0.0,0.0,0.6345443700263803,0.34290800477951416,0.5,-0.7527941465377808,-0.2934033274650574,-0.12318797409534454,0.0,0.0,0.0,0.029059182852506638,0.01660524681210518,-0.15359853208065033,0.0,0.0,0.0,0.0,0.0,0.0,0.0,0.7737880633288359,1.117401945552361,0.5,0.7398813366889954,-0.8956341743469238,-0.03458721563220024,0.0,0.0,0.0,-0.0027675412129610777,-0.005535082425922155,-0.13699328899383545,0.0,0.0,0.0,0.0,0.0,0.0,0.0,0.5769442821476681,0.8277839819464867,0.5
0.13,TAKEOFF,0.11680856347084045,0.7313065528869629,-0.027188975363969803,0.0,0.0,0.0,0.0013837706064805388,0.005535082425922155,-0.10931787639856339,0.0,0.0,0.0,0.0,0.0,0.0,0.0,0.6345684431685454,0.3428676014773058,0.5,-0.7527941465377808,-0.2934033274650574,-0.12318797409534454,0.0,0.0,0.0,0.029059182852506638,0.01660524681210518,-0.15359853208065033,0.0,0.0,0.0,0.0,0.0,0.0,0.0,0.7736421070907431,1.1172844277791678,0.5,0.7398813366889954,-0.8956341743469238,-0.03458721563220024,0.0,0.0,0.0,-0.0027675412129610777,-0.005535082425922155,-0.13699328899383545,0.0,0.0,0.0,0.0,0.0,0.0,0.0,0.576944241874945,0.8277838521343223,0.5
0.15,TAKEOFF,0.11680856347084045,0.7313065528869629,-0.027188975363969803,0.0,0.0,0.0,0.0013837706064805388,0.005535082425922155,-0.10931787639856339,0.0,0.0,0.0,0.0,0.0,0.0,0.0,0.6345923750103711,0.34282744246506947,0.5,-0.7527941465377808,-0.2934033274650574,-0.12318797409534454,0.0,0.0,0.0,0.029059182852506638,0.01660524681210518,-0.15359853208065033,0.0,0.0,0.0,0.0,0.0,0.0,0.0,0.7734930731480114,1.1171643544112408,0.5,0.7398813366889954,-0.8956341743469238,-0.03458721563220024,0.0,0.0,0.0,-0.0027675412129610777,-0.005535082425922155,-0.13699328899383545,0.0,0.0,0.0,0.0,0.0,0.0,0.0,0.5769442018438874,0.8277837231010219,0.5
0.17,TAKEOFF,0.11680856347084045,0.7313065528869629,-0.027188975363969803,0.0,0.0,0.0,0.0013837706064805388,0.005535082425922155,-0.10931787639856339,0.0,0.0,0.0,0.0,0.0,0.0,0.0,0.6346161663619666,0.3427875262549323,0.5,-0.7804498076438904,-0.2294560819864273,-0.11550721526145935,0.0,0.0,0.0,0.005535082425922155,0.0,-0.14806345105171204,0.0,0.0,0.0,0.0,0.0,0.0,0.0,0.7733449713730729,1.1170449543781078,0.5,0.7398813366889954,-0.8956341743469238,-0.03458721563220024,0.0,0.0,0.0,-0.0027675412129610777,-0.005535082425922155,-0.13699328899383545,0.0,0.0,0.0,0.0,0.0,0.0,0.0,0.5769441620530449,0.8277835948419123,0.5
0.19,TAKEOFF,0.11680856347084045,0.7313065528869629,-0.027188975363969803,0.0,0.0,0.0,0.0013837706064805388,0.005535082425922155,-0.10931787639856339,0.0,0.0,0.0,0.0,0.0,0.0,0.0,0.6346398180290331,0.34274785136820946,0.5,-0.7804498076438904,-0.2294560819864273,-0.11550721526145935,0.0,0.0,0.0,0.005535082425922155,0.0,-0.14806345105171204,0.0,0.0,0.0,0.0,0.0,0.0,0.0,0.7731977957334726,1.1169262242152245,0.5,0.7656207084655762,-0.8478983640670776,-0.014193717390298843,0.0,0.0,0.0,-0.01107016485184431,0.012453935109078884,-0.1342257410287857,0.0,0.0,0.0,0.0,0.0,0.0,0.0,0.5769791260684581,0.8278962563932477,0.5
0.21,TAKEOFF,0.11680856347084045,0.7313065528869629,-0.027188975363969803,0.0,0.0,0.0,0.0013837706064805388,0.005535082425922155,-0.10931787639856339,0.0,0.0,0.0,0.0,0.0,0.0,0.0,0.6346783968940994,0.3426831514993609,0.5,-0.7804498076438904,-0.2294560819864273,-0.11550721526145935,0.0,0.0,0.0,0.005535082425922155,0.0,-0.14806345105171204,0.0,0.0,0.0,0.0,0.0,0.0,0.0,0.7730515402379405,1.1168081604717415,0.5,0.7656207084655762,-0.8478983640670776,-0.014193717390298843,0.0,0.0,0.0,-0.01107016485184431,0.012453935109078884,-0.1342257410287857,0.0,0.0,0.0,0.0,0.0,0.0,0.0,0.5770139022498588,0.8280082351608086,0.5
0.23,TAKEOFF,0.11281464248895645,0.7256022691726685,-0.02528521604835987,0.0,0.0,0.0,0.0013837706064805388,0.0027675412129610777,-0.10931787639856339,0.0,0.0,0.0,0.0,0.0,0.0,0.0,0.6347167523356355,0.3426188446302128,0.5,-0.7804498076438904,-0.2294560819864273,-0.11550721526145935,0.0,0.0,0.0,0.005535082425922155,0.0,-0.14806345105171204,0.0,0.0,0.0,0.0,0.0,0.0,0.0,0.7729061989360893,1.116690759710509,0.5,0.7656207084655762,-0.8478983640670776,-0.014193717390298843,0.0,0.0,0.0,-0.01107016485184431,0.012453935109078884,-0.1342257410287857,0.0,0.0,0.0,0.0,0.0,0.0,0.0,0.5770484914603239,0.8281195353185875,0.5
0.25,TAKEOFF,0.11281464248895645,0.7256022691726685,-0.02528521604835987,0.0,0.0,0.0,0.0013837706064805388,0.0027675412129610777,-0.10931787639856339,0.0,0.0,0.0,0.0,0.0,0.0,0.0,0.6347548855972844,0.34255492834632617,0.5,-0.7804498076438904,-0.2294560819864273,-0.11550721526145935,0.0,0.0,0.0,0.005535082425922155,0.0,-0.14806345105171204,0.0,0.0,0.0,0.0,0.0,0.0,0.0,0.7727456143479402,1.1165609590463896,0.5,0.7656207084655762,-0.8478983640670776,-0.014193717390298843,0.0,0.0,0.0,-0.01107016485184431,0.012453935109078884,-0.1342257410287857,0.0,0.0,0.0,0.0,0.0,0.0,0.0,0.5770828945609324,0.8282301610146847,0.5
0.27,TAKEOFF,0.11281464248895645,0.7256022691726685,-0.02528521604835987,0.0,0.0,0.0,0.0013837706064805388,0.0027675412129610777,-0.10931787639856339,0.0,0.0,0.0,0.0,0.0,0.0,0.0,0.6347927979163972,0.34249140024840663,0.5,-0.7804498076438904,-0.2294560819864273,-0.11550721526145935,0.0,0.0,0.0,0.005535082425922155,0.0,-0.14806345105171204,0.0,0.0,0.0,0.0,0.0,0.0,0.0,0.7725860375450733,1.116431882426653,0.5,0.7656207084655762,-0.8478983640670776,-0.014193717390298843,0.0,0.0,0.0,-0.01107016485184431,0.012453935109078884,-0.1342257410287857,0.0,0.0,0.0,0.0,0.0,0.0,0.0,0.5771171124107389,0.8283401163714719,0.5
0.29,TAKEOFF,0.11281464248895645,0.7256022691726685,-0.02528521604835987,0.0,0.0,0.0,0.0013837706064805388,0.0027675412129610777,-0.10931787639856339,0.0,0.0,0.0,0.0,0.0,0.0,0.0,0.6348304905240562,0.3424282579522048,0.5,-0.7468878030776978,-0.23133771121501923,-0.009406378492712975,0.0,0.0,0.0,-0.005535082425922155,-0.02214032970368862,-0.11623673141002655,0.0,0.0,0.0,0.0,0.0,0.0,0.0,0.7724274619695433,1.116303526177145,0.5,0.7853482365608215,-0.9094561338424683,-0.029032081365585327,0.0,0.0,0.0,0.01107016485184431,0.00830262340605259,-0.12453935295343399,0.0,0.0,0.0,0.0,0.0,0.0,0.0,0.5771511458667474,0.8284494054857555,0.5
0.31,TAKEOFF,0.11281464248895645,0.7256022691726685,-0.02528521604835987,0.0,0.0,0.0,0.0013837706064805388,0.0027675412129610777,-0.10931787639856339,0.0,0.0,0.0,0.0,0.0,0.0,0.0,0.6349076296536044,0.34229909000633146,0.5,-0.7468878030776978,-0.23133771121501923,-0.009406378492712975,0.0,0.0,0.0,-0.005535082425922155,-0.02214032970368862,-0.11623673141002655,0.0,0.0,0.0,0.0,0.0,0.0,0.0,0.7722698811085327,1.1161758866374774,0.5,0.7853482365608215,-0.9094561338424683,-0.029032081365585327,0.0,0.0,0.0,0.01107016485184431,0.00830262340605259,-0.12453935295343399,0.0,0.0,0.0,0.0,0.0,0.0,0.0,0.5771769923965292,0.8285323554992599,0.5
0.33,TAKEOFF,0.12599611282348633,0.7504183650016785,-0.04829677194356918,0.0,0.0,0.0,-0.005535082425922155,-0.00830262340605259,-0.10239902138710022,0.0,0.0,0.0,0.0,0.0,0.0,0.0,0.6349843380436442,0.34217071624087364,0.5,-0.7468878030776978,-0.23133771121501923,-0.009406378492712975,0.0,0.0,0.0,-0.005535082425922155,-0.02214032970368862,-0.11623673141002655,0.0,0.0,0.0,0.0,0.0,0.0,0.0,0.7721132884940187,1.1160489601610495,0.5,0.7853482365608215,-0.9094561338424683,-0.029032081365585327,0.0,0.0,0.0,0.01107016485184431,0.00830262340605259,-0.12453935295343399,0.0,0.0,0.0,0.0,0.0,0.0,0.0,0.5772026957506262,0.8286148041027124,0.5
0.351,TAKEOFF,0.12599611282348633,0.7504183650016785,-0.04829677194356918,0.0,0.0,0.0,-0.005535082425922155,-0.00830262340605259,-0.10239902138710022,0.0,0.0,0.0,0.0,0.0,0.0,0.0,0.6350606178899024,0.3420431316692693,0.5,-0.7468878030776978,-0.23133771121501923,-0.009406378492712975,0.0,0.0,0.0,-0.005535082425922155,-0.02214032970368862,-0.11623673141002655,0.0,0.0,0.0,0.0,0.0,0.0,0.0,0.7720275390871891,1.1159794188497103,0.5,0.7853482365608215,-0.9094561338424683,-0.029032081365585327,0.0,0.0,0.0,0.01107016485184431,0.00830262340605259,-0.12453935295343399,0.0,0.0,0.0,0.0,0.0,0.0,0.0,0.5772282566451512,0.8286967543472666,0.5
0.37,TAKEOFF,0.12599611282348633,0.7504183650016785,-0.04829677194356918,0.0,0.0,0.0,-0.005535082425922155,-0.00830262340605259,-0.10239902138710022,0.0,0.0,0.0,0.0,0.0,0.0,0.0,0.6351364713796644,0.3419163313373833,0.5,-0.7468878030776978,-0.23133771121501923,-0.009406378492712975,0.0,0.0,0.0,-0.005535082425922155,-0.02214032970368862,-0.11623673141002655,0.0,0.0,0.0,0.0,0.0,0.0,0.0,0.7719423168593181,1.1159102791507178,0.5,0.7853482365608215,-0.9094561338424683,-0.029032081365585327,0.0,0.0,0.0,0.01107016485184431,0.00830262340605259,-0.12453935295343399,0.0,0.0,0.0,0.0,0.0,0.0,0.0,0.5772536757936402,0.8287782092652889,0.5
0.39,TAKEOFF,0.12599611282348633,0.7504183650016785,-0.04829677194356918,0.0,0.0,0.0,-0.005535082425922155,-0.00830262340605259,-0.10239902138710022,0.0,0.0,0.0,0.0,0.0,0.0,0.0,0.6352119006917669,0.3417903103232853,0.5,-0.7169811725616455,-0.28706344962120056,0.0002757066395133734,0.0,0.0,0.0,0.049815740436315536,-0.009686394594609737,-0.06918852776288986,0.0,0.0,0.0,0.0,0.0,0.0,0.0,0.7718576184984234,1.1158415388437535,0.5,0.7710140347480774,-0.9004920721054077,-0.011497360654175282,0.0,0.0,0.0,0.00830262340605259,-0.005535082425922155,-0.09548017382621765,0.0,0.0,0.0,0.0,0.0,0.0,0.0,0.577278953907046,0.828859171870476,0.5
0.411,TAKEOFF,0.12599611282348633,0.7504183650016785,-0.04829677194356918,0.0,0.0,0.0,-0.005535082425922155,-0.00830262340605259,-0.10239902138710022,0.0,0.0,0.0,0.0,0.0,0.0,0.0,0.6352683652329125,0.34169601986026554,0.5,-0.7169811725616455,-0.28706344962120056,0.0002757066395133734,0.0,0.0,0.0,0.049815740436315536,-0.009686394594609737,-0.06918852776288986,0.0,0.0,0.0,0.0,0.0,0.0,0.0,0.7717734407141256,1.1157731957195143,0.5,0.7710140347480774,-0.9004920721054077,-0.011497360654175282,0.0,0.0,0.0,0.00830262340605259,-0.005535082425922155,-0.09548017382621765,0.0,0.0,0.0,0.0,0.0,0.0,0.0,0.5772716453106462,0.8288357674930433,0.5
0.431,TAKEOFF,0.06219617649912834,0.7911768555641174,0.002681237179785967,0.0,0.0,0.0,-0.024907870218157768,-0.09409639984369278,-0.07333984225988388,0.0,0.0,0.0,0.0,0.0,0.0,0.0,0.6353245081022753,0.3416023053915042,0.5,-0.7169811725616455,-0.28706344962120056,0.0002757066395133734,0.0,0.0,0.0,0.049815740436315536,-0.009686394594609737,-0.06918852776288986,0.0,0.0,0.0,0.0,0.0,0.0,0.0,0.771689780237498,1.1157052475796763,0.5,0.7710140347480774,-0.9004920721054077,-0.011497360654175282,0.0,0.0,0.0,0.00830262340605259,-0.005535082425922155,-0.09548017382621765,0.0,0.0,0.0,0.0,0.0,0.0,0.0,0.5772643815136596,0.8288125032459116,0.5
0.451,TAKEOFF,0.06219617649912834,0.7911768555641174,0.002681237179785967,0.0,0.0,0.0,-0.024907870218157768,-0.09409639984369278,-0.07333984225988388,0.0,0.0,0.0,0.0,0.0,0.0,0.0,0.6353803310232715,0.3415091633414658,0.5,-0.7169811725616455,-0.28706344962120056,0.0002757066395133734,0.0,0.0,0.0,0.049815740436315536,-0.009686394594609737,-0.06918852776288986,0.0,0.0,0.0,0.0,0.0,0.0,0.0,0.7716941103881061,1.1157087650935438,0.5,0.7710140347480774,-0.9004920721054077,-0.011497360654175282,0.0,0.0,0.0,0.00830262340605259,-0.005535082425922155,-0.09548017382621765,0.0,0.0,0.0,0.0,0.0,0.0,0.0,0.5772571622359615,0.828789378291878,0.5
0.471,TAKEOFF,0.06219617649912834,0.7911768555641174,0.002681237179785967,0.0,0.0,0.0,-0.024907870218157768,-0.09409639984369278,-0.07333984225988388,0.0,0.0,0.0,0.0,0.0,0.0,0.0,0.6354358357114822,0.3414165901574434,0.5,-0.7169811725616455,-0.28706344962120056,0.0002757066395133734,0.0,0.0,0.0,0.049815740436315536,-0.009686394594609737,-0.06918852776288986,0.0,0.0,0.0,0.0,0.0,0.0,0.0,0.7716984145902221,1.1157122614624277,0.5,0.7710140347480774,-0.9004920721054077,-0.011497360654175282,0.0,0.0,0.0,0.00830262340605259,-0.005535082425922155,-0.09548017382621765,0.0,0.0,0.0,0.0,0.0,0.0,0.0,0.5772499871992434,0.8287663917987194,0.5
0.49,TAKEOFF,0.06219617649912834,0.7911768555641174,0.002681237179785967,0.0,0.0,0.0,-0.024907870218157768,-0.09409639984369278,-0.07333984225988388,0.0,0.0,0.0,0.0,0.0,0.0,0.0,0.6354910238746683,0.34132458230940577,0.5,-0.6907719969749451,-0.29003453254699707,0.0036197344306856394,0.0,0.0,0.0,-0.05258328467607498,-0.05258328467607498,-0.035978034138679504,0.0,0.0,0.0,0.0,0.0,0.0,0.0,0.7717026929991495,1.1157157368136752,0.5,0.7528237700462341,-0.9339669346809387,-0.042329512536525726,0.0,0.0,0.0,0.015221476554870605,-0.015221476554870605,-0.07057230174541473,0.0,0.0,0.0,0.0,0.0,0.0,0.0,0.5772428561270005,0.8287435429391627,0.5
0.51,TAKEOFF,0.06219617649912834,0.7911768555641174,0.002681237179785967,0.0,0.0,0.0,-0.024907870218157768,-0.09409639984369278,-0.07333984225988388,0.0,0.0,0.0,0.0,0.0,0.0,0.0,0.6355348683211886,0.34125151289973377,0.5,-0.6907719969749451,-0.29003453254699707,0.0036197344306856394,0.0,0.0,0.0,-0.05258328467607498,-0.05258328467607498,-0.035978034138679504,0.0,0.0,0.0,0.0,0.0,0.0,0.0,0.7717069457692636,1.1157191912738633,0.5,0.7528237700462341,-0.9339669346809387,-0.042329512536525726,0.0,0.0,0.0,0.015221476554870605,-0.015221476554870605,-0.07057230174541473,0.0,0.0,0.0,0.0,0.0,0.0,0.0,0.5772282919753738,0.8286968675902084,0.5
0.531,TAKEOFF,0.023758813738822937,0.796737551689148,0.042753539979457855,0.0,0.0,0.0,-0.04289688542485237,-0.05258328467607498,-0.04704819992184639,0.0,0.0,0.0,0.0,0.0,0.0,0.0,0.6355784599849775,0.3411788880782716,0.5,-0.6907719969749451,-0.29003453254699707,0.0036197344306856394,0.0,0.0,0.0,-0.05258328467607498,-0.05258328467607498,-0.035978034138679504,0.0,0.0,0.0,0.0,0.0,0.0,0.0,0.7717111730540183,1.115722624968804,0.5,0.7528237700462341,-0.9339669346809387,-0.042329512536525726,0.0,0.0,0.0,0.015221476554870605,-0.015221476554870605,-0.07057230174541473,0.0,0.0,0.0,0.0,0.0,0.0,0.0,0.5772138189781777,0.8286504711173085,0.5
0.551,TAKEOFF,0.023758813738822937,0.796737551689148,0.042753539979457855,0.0,0.0,0.0,-0.04289688542485237,-0.05258328467607498,-0.04704819992184639,0.0,0.0,0.0,0.0,0.0,0.0,0.0,0.6356218002588332,0.34110670510508606,0.5,-0.6907719969749451,-0.29003453254699707,0.0036197344306856394,0.0,0.0,0.0,-0.05258328467607498,-0.05258328467607498,-0.035978034138679504,0.0,0.0,0.0,0.0,0.0,0.0,0.0,0.7717167711937947,1.1157271720696058,0.5,0.7528237700462341,-0.9339669346809387,-0.042329512536525726,0.0,0.0,0.0,0.015221476554870605,-0.015221476554870605,-0.07057230174541473,0.0,0.0,0.0,0.0,0.0,0.0,0.0,0.5771994365434812,0.8286043518615788,0.5
0.571,TAKEOFF,0.023758813738822937,0.796737551689148,0.042753539979457855,0.0,0.0,0.0,-0.04289688542485237,-0.05258328467607498,-0.04704819992184639,0.0,0.0,0.0,0.0,0.0,0.0,0.0,0.6356648905286947,0.341034961257523,0.5,-0.6907719969749451,-0.29003453254699707,0.0036197344306856394,0.0,0.0,0.0,-0.05258328467607498,-0.05258328467607498,-0.035978034138679504,0.0,0.0,0.0,0.0,0.0,0.0,0.0,0.7717223357988985,1.1157316918211158,0.5,0.7528237700462341,-0.9339669346809387,-0.042329512536525726,0.0,0.0,0.0,0.015221476554870605,-0.015221476554870605,-0.07057230174541473,0.0,0.0,0.0,0.0,0.0,0.0,0.0,0.5771851440834416,0.8285585081739104,0.5
0.59,TAKEOFF,0.023758813738822937,0.796737551689148,0.042753539979457855,0.0,0.0,0.0,-0.04289688542485237,-0.05258328467607498,-0.04704819992184639,0.0,0.0,0.0,0.0,0.0,0.0,0.0,0.6357077321736644,0.3409636538300959,0.5,-0.7949714064598083,-0.27213767170906067,-0.12759065628051758,0.0,0.0,0.0,-0.015221476554870605,-0.062269676476716995,-0.006918853148818016,0.0,0.0,0.0,0.0,0.0,0.0,0.0,0.7717278670698888,1.1157361843882267,0.5,0.6713838577270508,-0.8340770602226257,0.017807865515351295,0.0,0.0,0.0,-0.009686394594609737,-0.02629164233803749,-0.035978034138679504,0.0,0.0,0.0,0.0,0.0,0.0,0.0,0.5771709410142735,0.8285129384149148,0.5
0.61,TAKEOFF,0.023758813738822937,0.796737551689148,0.042753539979457855,0.0,0.0,0.0,-0.04289688542485237,-0.05258328467607498,-0.04704819992184639,0.0,0.0,0.0,0.0,0.0,0.0,0.0,0.6356274275574898,0.3410973345552443,0.5,-0.7949714064598083,-0.27213767170906067,-0.12759065628051758,0.0,0.0,0.0,-0.015221476554870605,-0.062269676476716995,-0.006918853148818016,0.0,0.0,0.0,0.0,0.0,0.0,0.0,0.7717333652061296,1.115740649934833,0.5,0.6713838577270508,-0.8340770602226257,0.017807865515351295,0.0,0.0,0.0,-0.009686394594609737,-0.02629164233803749,-0.035978034138679504,0.0,0.0,0.0,0.0,0.0,0.0,0.0,0.5771883445493062,0.8285687749295374,0.5
0.63,TAKEOFF,0.009738384746015072,0.8110105991363525,0.05169661343097687,0.0,0.0,0.0,-0.013837706297636032,-0.017989017069339752,-0.023524099960923195,0.0,0.0,0.0,0.0,0.0,0.0,0.0,0.635547639204718,0.34123023387617585,0.5,-0.7949714064598083,-0.27213767170906067,-0.12759065628051758,0.0,0.0,0.0,-0.015221476554870605,-0.062269676476716995,-0.006918853148818016,0.0,0.0,0.0,0.0,0.0,0.0,0.0,0.7717388304057955,1.1157450886238358,0.5,0.6713838577270508,-0.8340770602226257,0.017807865515351295,0.0,0.0,0.0,-0.009686394594609737,-0.02629164233803749,-0.035978034138679504,0.0,0.0,0.0,0.0,0.0,0.0,0.0,0.5772056490569075,0.8286242747436122,0.5
0.65,TAKEOFF,0.009738384746015072,0.8110105991363525,0.05169661343097687,0.0,0.0,0.0,-0.013837706297636032,-0.017989017069339752,-0.023524099960923195,0.0,0.0,0.0,0.0,0.0,0.0,0.0,0.6354683636110575,0.34136235622510797,0.5,-0.7949714064598083,-0.27213767170906067,-0.12759065628051758,0.0,0.0,0.0,-0.015221476554870605,-0.062269676476716995,-0.006918853148818016,0.0,0.0,0.0,0.0,0.0,0.0,0.0,0.7717742143160056,1.115773823914274,0.5,0.6713838577270508,-0.8340770602226257,0.017807865515351295,0.0,0.0,0.0,-0.009686394594609737,-0.02629164233803749,-0.035978034138679504,0.0,0.0,0.0,0.0,0.0,0.0,0.0,0.5772228550665497,0.8286794398969433,0.5
0.671,TAKEOFF,0.009738384746015072,0.8110105991363525,0.05169661343097687,0.0,0.0,0.0,-0.013837706297636032,-0.017989017069339752,-0.023524099960923195,0.0,0.0,0.0,0.0,0.0,0.0,0.0,0.6353895972980119,0.34149370601088597,0.5,-0.7949714064598083,-0.27213767170906067,-0.12759065628051758,0.0,0.0,0.0,-0.015221476554870605,-0.062269676476716995,-0.006918853148818016,0.0,0.0,0.0,0.0,0.0,0.0,0.0,0.7718093880860755,1.1158023841289044,0.5,0.6713838577270508,-0.8340770602226257,0.017807865515351295,0.0,0.0,0.0,-0.009686394594609737,-0.02629164233803749,-0.035978034138679504,0.0,0.0,0.0,0.0,0.0,0.0,0.0,0.5772399631053053,0.8287342724168706,0.5
0.69,TAKEOFF,0.009738384746015072,0.8110105991363525,0.05169661343097687,0.0,0.0,0.0,-0.013837706297636032,-0.017989017069339752,-0.023524099960923195,0.0,0.0,0.0,0.0,0.0,0.0,0.0,0.6353113368126696,0.3416242876190818,0.5,-0.8677718043327332,-0.17666226625442505,-0.059587616473436356,0.0,0.0,0.0,-0.0,0.06503721326589584,0.017989017069339752,0.0,0.0,0.0,0.0,0.0,0.0,0.0,0.7718443529507659,1.1158307703498935,0.5,0.6914896368980408,-0.8185844421386719,-0.007875331677496433,0.0,0.0,0.0,0.023524099960923195,0.009686394594609737,-0.013837706297636032,0.0,0.0,0.0,0.0,0.0,0.0,0.0,0.5772569736978518,0.8287887743183471,0.5
0.711,TAKEOFF,0.009738384746015072,0.8110105991363525,0.05169661343097687,0.0,0.0,0.0,-0.013837706297636032,-0.017989017069339752,-0.023524099960923195,0.0,0.0,0.0,0.0,0.0,0.0,0.0,0.6352508665337958,0.3417252368490214,0.5,-0.8677718043327332,-0.17666226625442505,-0.059587616473436356,0.0,0.0,0.0,-0.0,0.06503721326589584,0.017989017069339752,0.0,0.0,0.0,0.0,0.0,0.0,0.0,0.7718791101377436,1.1158589836525377,0.5,0.6914896368980408,-0.8185844421386719,-0.007875331677496433,0.0,0.0,0.0,0.023524099960923195,0.009686394594609737,-0.013837706297636032,0.0,0.0,0.0,0.0,0.0,0.0,0.0,0.5773317471762762,0.8290281324480141,0.5
0.73,TAKEOFF,-0.016217293217778206,0.8229912519454956,0.04111526533961296,0.0,0.0,0.0,-0.012453935109078884,0.020756559446454048,0.03459426388144493,0.0,0.0,0.0,0.0,0.0,0.0,0.0,0.6351907786985764,0.3418255921348725,0.5,-0.8677718043327332,-0.17666226625442505,-0.059587616473436356,0.0,0.0,0.0,-0.0,0.06503721326589584,0.017989017069339752,0.0,0.0,0.0,0.0,0.0,0.0,0.0,0.7719136608676214,1.1158870251053103,0.5,0.6914896368980408,-0.8185844421386719,-0.007875331677496433,0.0,0.0,0.0,0.023524099960923195,0.009686394594609737,-0.013837706297636032,0.0,0.0,0.0,0.0,0.0,0.0,0.0,0.5774061711468168,0.8292660234379389,0.5
0.751,TAKEOFF,-0.016217293217778206,0.8229912519454956,0.04111526533961296,0.0,0.0,0.0,-0.012453935109078884,0.020756559446454048,0.03459426388144493,0.0,0.0,0.0,0.0,0.0,0.0,0.0,0.6351310707798553,0.34192535689592746,0.5,-0.8677718043327332,-0.17666226625442505,-0.059587616473436356,0.0,0.0,0.0,-0.0,0.06503721326589584,0.017989017069339752,0.0,0.0,0.0,0.0,0.0,0.0,0.0,0.771967530350266,1.1159307372244538,0.5,0.6914896368980408,-0.8185844421386719,-0.007875331677496433,0.0,0.0,0.0,0.023524099960923195,0.009686394594609737,-0.013837706297636032,0.0,0.0,0.0,0.0,0.0,0.0,0.0,0.5774802465077645,0.8295024564210474,0.5
0.771,TAKEOFF,-0.016217293217778206,0.8229912519454956,0.04111526533961296,0.0,0.0,0.0,-0.012453935109078884,0.020756559446454048,0.03459426388144493,0.0,0.0,0.0,0.0,0.0,0.0,0.0,0.6350717402683795,0.34202453453275733,0.5,-0.8677718043327332,-0.17666226625442505,-0.059587616473436356,0.0,0.0,0.0,-0.0,0.06503721326589584,0.017989017069339752,0.0,0.0,0.0,0.0,0.0,0.0,0.0,0.7720210816243617,1.115974180898022,0.5,0.6914896368980408,-0.8185844421386719,-0.007875331677496433,0.0,0.0,0.0,0.023524099960923195,0.009686394594609737,-0.013837706297636032,0.0,0.0,0.0,0.0,0.0,0.0,0.0,0.5775539741665736,0.829737440472252,0.5
0.791,TAKEOFF,-0.016217293217778206,0.8229912519454956,0.04111526533961296,0.0,0.0,0.0,-0.012453935109078884,0.020756559446454048,0.03459426388144493,0.0,0.0,0.0,0.0,0.0,0.0,0.0,0.6350127846726599,0.34212312842730164,0.5,-0.880266547203064,-0.18665249645709991,0.04117739573121071,0.0,0.0,0.0,0.04289688542485237,0.0982477143406868,0.035978034138679504,0.0,0.0,0.0,0.0,0.0,0.0,0.0,0.7720743165385389,1.1160173578099721,0.5,0.7536266446113586,-0.8141257166862488,-0.009686201810836792,0.0,0.0,0.0,0.10516656935214996,0.040129344910383224,-0.004151311703026295,0.0,0.0,0.0,0.0,0.0,0.0,0.0,0.5776273550396295,0.8299709846088242,0.5
0.81,TAKEOFF,-0.016217293217778206,0.8229912519454956,0.04111526533961296,0.0,0.0,0.0,-0.012453935109078884,0.020756559446454048,0.03459426388144493,0.0,0.0,0.0,0.0,0.0,0.0,0.0,0.6350248258766116,0.3421029879381974,0.5,-0.880266547203064,-0.18665249645709991,0.04117739573121071,0.0,0.0,0.0,0.04289688542485237,0.0982477143406868,0.035978034138679504,0.0,0.0,0.0,0.0,0.0,0.0,0.0,0.7721272369310737,1.1160602696332902,0.5,0.7536266446113586,-0.8141257166862488,-0.009686201810836792,0.0,0.0,0.0,0.10516656935214996,0.040129344910383224,-0.004151311703026295,0.0,0.0,0.0,0.0,0.0,0.0,0.0,0.5776981706259104,0.830196049055107,0.5
0.831,TAKEOFF,0.022853709757328033,0.7951413989067078,0.011785882525146008,0.0,0.0,0.0,0.009686394594609737,0.015221476554870605,0.05119951069355011,0.0,0.0,0.0,0.0,0.0,0.0,0.0,0.6350367956139336,0.3420829687587346,0.5,-0.880266547203064,-0.18665249645709991,0.04117739573121071,0.0,0.0,0.0,0.04289688542485237,0.0982477143406868,0.035978034138679504,0.0,0.0,0.0,0.0,0.0,0.0,0.0,0.7721798446299422,1.116102918030069,0.5,0.7536266446113586,-0.8141257166862488,-0.009686201810836792,0.0,0.0,0.0,0.10516656935214996,0.040129344910383224,-0.004151311703026295,0.0,0.0,0.0,0.0,0.0,0.0,0.0,0.577768649022098,0.8304197355003197,0.5
0.851,TAKEOFF,0.022853709757328033,0.7951413989067078,0.011785882525146008,0.0,0.0,0.0,0.009686394594609737,0.015221476554870605,0.05119951069355011,0.0,0.0,0.0,0.0,0.0,0.0,0.0,0.6350486943040685,0.34206307015550186,0.5,-0.880266547203064,-0.18665249645709991,0.04117739573121071,0.0,0.0,0.0,0.04289688542485237,0.0982477143406868,0.035978034138679504,0.0,0.0,0.0,0.0,0.0,0.0,0.0,0.7721784514324952,1.116101788709347,0.5,0.7536266446113586,-0.8141257166862488,-0.009686201810836792,0.0,0.0,0.0,0.10516656935214996,0.040129344910383224,-0.004151311703026295,0.0,0.0,0.0,0.0,0.0,0.0,0.0,0.5778387911913778,0.8306420525089779,0.5
0.871,TAKEOFF,0.022853709757328033,0.7951413989067078,0.011785882525146008,0.0,0.0,0.0,0.009686394594609737,0.015221476554870605,0.05119951069355011,0.0,0.0,0.0,0.0,0.0,0.0,0.0,0.6350605223640549,0.342043291399554,0.5,-0.8272820711135864,-0.20906364917755127,0.08440248668193817,0.0,0.0,0.0,0.07472360879182816,0.08717754483222961,0.04428065940737724,0.0,0.0,0.0,0.0,0.0,0.0,0.0,0.7721770665975782,1.116100666160422,0.5,0.7536266446113586,-0.8141257166862488,-0.009686201810836792,0.0,0.0,0.0,0.10516656935214996,0.040129344910383224,-0.004151311703026295,0.0,0.0,0.0,0.0,0.0,0.0,0.0,0.5779085981040152,0.8308630085912728,0.5
0.89,TAKEOFF,0.022853709757328033,0.7951413989067078,0.011785882525146008,0.0,0.0,0.0,0.009686394594609737,0.015221476554870605,0.05119951069355011,0.0,0.0,0.0,0.0,0.0,0.0,0.0,0.6350722802085399,0.3420236317663844,0.5,-0.8272820711135864,-0.20906364917755127,0.08440248668193817,0.0,0.0,0.0,0.07472360879182816,0.08717754483222961,0.04428065940737724,0.0,0.0,0.0,0.0,0.0,0.0,0.0,0.7721756900749759,1.1160995503427134,0.5,0.785185694694519,-0.8192792534828186,-0.035265643149614334,0.0,0.0,0.0,0.04843197017908096,-0.006918853148818016,0.00830262340605259,0.0,0.0,0.0,0.0,0.0,0.0,0.0,0.5779574563641111,0.8310174805663316,0.5
0.911,TAKEOFF,0.022853709757328033,0.7951413989067078,0.011785882525146008,0.0,0.0,0.0,0.009686394594609737,0.015221476554870605,0.05119951069355011,0.0,0.0,0.0,0.0,0.0,0.0,0.0,0.6351228039614203,0.3419391732150126,0.5,-0.8272820711135864,-0.20906364917755127,0.08440248668193817,0.0,0.0,0.0,0.07472360879182816,0.08717754483222961,0.04428065940737724,0.0,0.0,0.0,0.0,0.0,0.0,0.0,0.7721743218147751,1.1160984412158819,0.5,0.785185694694519,-0.8192792534828186,-0.035265643149614334,0.0,0.0,0.0,0.04843197017908096,-0.006918853148818016,0.00830262340605259,0.0,0.0,0.0,0.0,0.0,0.0,0.0,0.5780060628094222,0.8311710126295637,0.5
0.931,TAKEOFF,0.06257332116365433,0.7509685754776001,-0.02654218301177025,0.0,0.0,0.0,0.01107016485184431,0.041513118892908096,0.06365344673395157,0.0,0.0,0.0,0.0,0.0,0.0,0.0,0.6351730383002682,0.34185522962895676,0.5,-0.8272820711135864,-0.20906364917755127,0.08440248668193817,0.0,0.0,0.0,0.07472360879182816,0.08717754483222961,0.04428065940737724,0.0,0.0,0.0,0.0,0.0,0.0,0.0,0.772172961767362,1.1160973387398312,0.5,0.785185694694519,-0.8192792534828186,-0.035265643149614334,0.0,0.0,0.0,0.04843197017908096,-0.006918853148818016,0.00830262340605259,0.0,0.0,0.0,0.0,0.0,0.0,0.0,0.5780544184528379,0.8313236105659675,0.5
0.951,TAKEOFF,0.06257332116365433,0.7509685754776001,-0.02654218301177025,0.0,0.0,0.0,0.01107016485184431,0.041513118892908096,0.06365344673395157,0.0,0.0,0.0,0.0,0.0,0.0,0.0,0.6352229847959969,0.34177179782236405,0.5,-0.8272820711135864,-0.20906364917755127,0.08440248668193817,0.0,0.0,0.0,0.07472360879182816,0.08717754483222961,0.04428065940737724,0.0,0.0,0.0,0.0,0.0,0.0,0.0,0.7720723994670595,1.1160158031176777,0.5,0.785185694694519,-0.8192792534828186,-0.035265643149614334,0.0,0.0,0.0,0.04843197017908096,-0.006918853148818016,0.00830262340605259,0.0,0.0,0.0,0.0,0.0,0.0,0.0,0.5781025243071871,0.8314752801242873,0.5
0.971,TAKEOFF,0.06257332116365433,0.7509685754776001,-0.02654218301177025,0.0,0.0,0.0,0.01107016485184431,0.041513118892908096,0.06365344673395157,0.0,0.0,0.0,0.0,0.0,0.0,0.0,0.6352726450120982,0.3416888746296063,0.5,-0.8272820711135864,-0.20906364917755127,0.08440248668193817,0.0,0.0,0.0,0.07472360879182816,0.08717754483222961,0.04428065940737724,0.0,0.0,0.0,0.0,0.0,0.0,0.0,0.7719724579780115,1.1159347352074256,0.5,0.785185694694519,-0.8192792534828186,-0.035265643149614334,0.0,0.0,0.0,0.04843197017908096,-0.006918853148818016,0.00830262340605259,0.0,0.0,0.0,0.0,0.0,0.0,0.0,0.5781503813851664,0.8316260270172462,0.5
0.991,TAKEOFF,0.06257332116365433,0.7509685754776001,-0.02654218301177025,0.0,0.0,0.0,0.01107016485184431,0.041513118892908096,0.06365344673395157,0.0,0.0,0.0,0.0,0.0,0.0,0.0,0.635322020504663,0.34160645690514596,0.5,-0.8601303696632385,-0.18083620071411133,0.08398281037807465,0.0,0.0,0.0,0.0027675412129610777,-0.013837706297636032,0.05119951069355011,0.0,0.0,0.0,0.0,0.0,0.0,0.0,0.7718731333712849,1.1158541324637468,0.5,0.7451454401016235,-0.9283635020256042,-0.008244633674621582,0.0,0.0,0.0,0.03874557837843895,-0.00830262340605259,-0.03044295310974121,0.0,0.0,0.0,0.0,0.0,0.0,0.0,0.5781979906992684,0.8317758569217761,0.5
1.011,TAKEOFF,0.06257332116365433,0.7509685754776001,-0.02654218301177025,0.0,0.0,0.0,0.01107016485184431,0.041513118892908096,0.06365344673395157,0.0,0.0,0.0,0.0,0.0,0.0,0.0,0.6353568314638179,0.341548368331372,0.5,-0.8601303696632385,-0.18083620071411133,0.08398281037807465,0.0,0.0,0.0,0.0027675412129610777,-0.013837706297636032,0.05119951069355011,0.0,0.0,0.0,0.0,0.0,0.0,0.0,0.7717744217438798,1.1157739923533982,0.5,0.7451454401016235,-0.9283635020256042,-0.008244633674621582,0.0,0.0,0.0,0.03874557837843895,-0.00830262340605259,-0.03044295310974121,0.0,0.0,0.0,0.0,0.0,0.0,0.0,0.5782649190818583,0.8319862556555467,0.5
1.031,TAKEOFF,0.06257332116365433,0.7509685754776001,-0.02654218301177025,0.0,0.0,0.0,0.01107016485184431,0.041513118892908096,0.06365344673395157,0.0,0.0,0.0,0.0,0.0,0.0,0.0,0.635391440054436,0.3414906321831493,0.5,-0.8601303696632385,-0.18083620071411133,0.08398281037807465,0.0,0.0,0.0,0.0027675412129610777,-0.013837706297636032,0.05119951069355011,0.0,0.0,0.0,0.0,0.0,0.0,0.0,0.7716763192185458,1.1156943123551892,0.5,0.7451454401016235,-0.9283635020256042,-0.008244633674621582,0.0,0.0,0.0,0.03874557837843895,-0.00830262340605259,-0.03044295310974121,0.0,0.0,0.0,0.0,0.0,0.0,0.0,0.5783315226165553,0.8321953675758363,0.5
1.051,TAKEOFF,0.05594408139586449,0.7468794584274292,-0.010961359366774559,0.0,0.0,0.0,-0.04428065940737724,0.0013837706064805388,0.07333984225988388,0.0,0.0,0.0,0.0,0.0,0.0,0.0,0.6354258474125638,0.34143324630005584,0.5,-0.8601303696632385,-0.18083620071411133,0.08398281037807465,0.0,0.0,0.0,0.0027675412129610777,-0.013837706297636032,0.05119951069355011,0.0,0.0,0.0,0.0,0.0,0.0,0.0,0.7715788219436028,1.115615089959946,0.5,0.7451454401016235,-0.9283635020256042,-0.008244633674621582,0.0,0.0,0.0,0.03874557837843895,-0.00830262340605259,-0.03044295310974121,0.0,0.0,0.0,0.0,0.0,0.0,0.0,0.5783978023257091,0.8324032006679737,0.5
1.071,TAKEOFF,0.05594408139586449,0.7468794584274292,-0.010961359366774559,0.0,0.0,0.0,-0.04428065940737724,0.0013837706064805388,0.07333984225988388,0.0,0.0,0.0,0.0,0.0,0.0,0.0,0.635460054668375,0.3413762085351677,0.5,-0.8601303696632385,-0.18083620071411133,0.08398281037807465,0.0,0.0,0.0,0.0027675412129610777,-0.013837706297636032,0.05119951069355011,0.0,0.0,0.0,0.0,0.0,0.0,0.0,0.7714700128739576,1.115526636022428,0.5,0.7451454401016235,-0.9283635020256042,-0.008244633674621582,0.0,0.0,0.0,0.03874557837843895,-0.00830262340605259,-0.03044295310974121,0.0,0.0,0.0,0.0,0.0,0.0,0.0,0.5784637592367711,0.8326097628667112,0.5
1.09,TAKEOFF,0.05594408139586449,0.7468794584274292,-0.010961359366774559,0.0,0.0,0.0,-0.04428065940737724,0.0013837706064805388,0.07333984225988388,0.0,0.0,0.0,0.0,0.0,0.0,0.0,0.6354940629461928,0.34131951675497224,0.5,-0.851588785648346,-0.17129147052764893,0.05298985540866852,0.0,0.0,0.0,0.009686394594609737,-0.0027675412129610777,0.04289688542485237,0.0,0.0,0.0,0.0,0.0,0.0,0.0,0.7713618771486466,1.115438687609446,0.5,0.7059975266456604,-0.9090037941932678,-0.018623188138008118,0.0,0.0,0.0,-0.06365344673395157,0.009686394594609737,-0.03321049362421036,0.0,0.0,0.0,0.0,0.0,0.0,0.0,0.578529394382126,0.8328150620565508,0.5
1.111,TAKEOFF,0.05594408139586449,0.7468794584274292,-0.010961359366774559,0.0,0.0,0.0,-0.04428065940737724,0.0013837706064805388,0.07333984225988388,0.0,0.0,0.0,0.0,0.0,0.0,0.0,0.6354790432436793,0.34134455284482584,0.5,-0.851588785648346,-0.17129147052764893,0.05298985540866852,0.0,0.0,0.0,0.009686394594609737,-0.0027675412129610777,0.04289688542485237,0.0,0.0,0.0,0.0,0.0,0.0,0.0,0.771254410488246,1.1153512419940381,0.5,0.7059975266456604,-0.9090037941932678,-0.018623188138008118,0.0,0.0,0.0,-0.06365344673395157,0.009686394594609737,-0.03321049362421036,0.0,0.0,0.0,0.0,0.0,0.0,0.0,0.5785975299780061,0.8330279138622423,0.5
1.13,TAKEOFF,0.05594408139586449,0.7468794584274292,-0.010961359366774559,0.0,0.0,0.0,-0.04428065940737724,0.0013837706064805388,0.07333984225988388,0.0,0.0,0.0,0.0,0.0,0.0,0.0,0.6354641148667058,0.3413694394424012,0.5,-0.851588785648346,-0.17129147052764893,0.05298985540866852,0.0,0.0,0.0,0.009686394594609737,-0.0027675412129610777,0.04289688542485237,0.0,0.0,0.0,0.0,0.0,0.0,0.0,0.7711476086417675,1.1152642964618589,0.5,0.7059975266456604,-0.9090037941932678,-0.018623188138008118,0.0,0.0,0.0,-0.06365344673395157,0.009686394594609737,-0.03321049362421036,0.0,0.0,0.0,0.0,0.0,0.0,0.0,0.578665335327716,0.8332394633909652,0.5
1.151,TAKEOFF,0.05990133434534073,0.7896416783332825,-0.009558802470564842,0.0,0.0,0.0,-0.024907870218157768,0.004151311703026295,0.07472360879182816,0.0,0.0,0.0,0.0,0.0,0.0,0.0,0.6354492772529092,0.34139417743592954,0.5,-0.851588785648346,-0.17129147052764893,0.05298985540866852,0.0,0.0,0.0,0.009686394594609737,-0.0027675412129610777,0.04289688542485237,0.0,0.0,0.0,0.0,0.0,0.0,0.0,0.7710414673864567,1.1151778483111487,0.5,0.7059975266456604,-0.9090037941932678,-0.018623188138008118,0.0,0.0,0.0,-0.06365344673395157,0.009686394594609737,-0.03321049362421036,0.0,0.0,0.0,0.0,0.0,0.0,0.0,0.5787328114635408,0.8334497187287286,0.5
1.171,TAKEOFF,0.05990133434534073,0.7896416783332825,-0.009558802470564842,0.0,0.0,0.0,-0.024907870218157768,0.004151311703026295,0.07472360879182816,0.0,0.0,0.0,0.0,0.0,0.0,0.0,0.6354345298434723,0.34141876770841745,0.5,-0.851588785648346,-0.17129147052764893,0.05298985540866852,0.0,0.0,0.0,0.009686394594609737,-0.0027675412129610777,0.04289688542485237,0.0,0.0,0.0,0.0,0.0,0.0,0.0,0.7710450638627979,1.1151807781682828,0.5,0.7059975266456604,-0.9090037941932678,-0.018623188138008118,0.0,0.0,0.0,-0.06365344673395157,0.009686394594609737,-0.03321049362421036,0.0,0.0,0.0,0.0,0.0,0.0,0.0,0.5787999594230822,0.8336586879102851,0.5
1.19,TAKEOFF,0.05990133434534073,0.7896416783332825,-0.009558802470564842,0.0,0.0,0.0,-0.024907870218157768,0.004151311703026295,0.07472360879182816,0.0,0.0,0.0,0.0,0.0,0.0,0.0,0.6354198720831006,0.34144321113767806,0.5,-0.8897833228111267,-0.13861902058124542,0.0808156356215477,0.0,0.0,0.0,0.03459426388144493,0.02214032970368862,0.029059182852506638,0.0,0.0,0.0,0.0,0.0,0.0,0.0,0.7710486387827293,1.115183690418718,0.5,0.6569156646728516,-0.9365450739860535,0.03566920757293701,0.0,0.0,0.0,-0.024907870218157768,0.029059182852506638,-0.012453935109078884,0.0,0.0,0.0,0.0,0.0,0.0,0.0,0.5788667802490864,0.8338663789194609,0.5
1.21,TAKEOFF,0.05990133434534073,0.7896416783332825,-0.009558802470564842,0.0,0.0,0.0,-0.024907870218157768,0.004151311703026295,0.07472360879182816,0.0,0.0,0.0,0.0,0.0,0.0,0.0,0.6353611127324998,0.3415412252632951,0.5,-0.8897833228111267,-0.13861902058124542,0.0808156356215477,0.0,0.0,0.0,0.03459426388144493,0.02214032970368862,0.029059182852506638,0.0,0.0,0.0,0.0,0.0,0.0,0.0,0.7710521922753206,1.115186585168424,0.5,0.6569156646728516,-0.9365450739860535,0.03566920757293701,0.0,0.0,0.0,-0.024907870218157768,0.029059182852506638,-0.012453935109078884,0.0,0.0,0.0,0.0,0.0,0.0,0.0,0.5789558681903136,0.8341428780206327,0.5
1.23,TAKEOFF,0.052382342517375946,0.7916343808174133,0.01352262869477272,0.0,0.0,0.0,0.020756559446454048,0.01660524681210518,0.08302623778581619,0.0,0.0,0.0,0.0,0.0,0.0,0.0,0.6353027244394527,0.3416386623933701,0.5,-0.8897833228111267,-0.13861902058124542,0.0808156356215477,0.0,0.0,0.0,0.03459426388144493,0.02214032970368862,0.029059182852506638,0.0,0.0,0.0,0.0,0.0,0.0,0.0,0.7710557244688703,1.115189462522731,0.5,0.6569156646728516,-0.9365450739860535,0.03566920757293701,0.0,0.0,0.0,-0.024907870218157768,0.029059182852506638,-0.012453935109078884,0.0,0.0,0.0,0.0,0.0,0.0,0.0,0.5790445542613532,0.8344176753496886,0.5
1.251,TAKEOFF,0.052382342517375946,0.7916343808174133,0.01352262869477272,0.0,0.0,0.0,0.020756559446454048,0.01660524681210518,0.08302623778581619,0.0,0.0,0.0,0.0,0.0,0.0,0.0,0.6352447047583365,0.3417355258537438,0.5,-0.8897833228111267,-0.13861902058124542,0.0808156356215477,0.0,0.0,0.0,0.03459426388144493,0.02214032970368862,0.029059182852506638,0.0,0.0,0.0,0.0,0.0,0.0,0.0,0.7710618109103851,1.1151944204840416,0.5,0.6569156646728516,-0.9365450739860535,0.03566920757293701,0.0,0.0,0.0,-0.024907870218157768,0.029059182852506638,-0.012453935109078884,0.0,0.0,0.0,0.0,0.0,0.0,0.0,0.5791328392659562,0.8346907815659771,0.5
1.27,TAKEOFF,0.052382342517375946,0.7916343808174133,0.01352262869477272,0.0,0.0,0.0,0.020756559446454048,0.01660524681210518,0.08302623778581619,0.0,0.0,0.0,0.0,0.0,0.0,0.0,0.635187051260788,0.34183181895199255,0.5,-0.8897833228111267,-0.13861902058124542,0.0808156356215477,0.0,0.0,0.0,0.03459426388144493,0.02214032970368862,0.029059182852506638,0.0,0.0,0.0,0.0,0.0,0.0,0.0,0.7710678608975363,1.115199348618666,0.5,0.6569156646728516,-0.9365450739860535,0.03566920757293701,0.0,0.0,0.0,-0.024907870218157768,0.029059182852506638,-0.012453935109078884,0.0,0.0,0.0,0.0,0.0,0.0,0.0,0.5792207240226178,0.8349622072606602,0.5
1.29,TAKEOFF,0.052382342517375946,0.7916343808174133,0.01352262869477272,0.0,0.0,0.0,0.020756559446454048,0.01660524681210518,0.08302623778581619,0.0,0.0,0.0,0.0,0.0,0.0,0.0,0.6351297615355697,0.34192754497751554,0.5,-0.8431528806686401,-0.09135692566633224,0.01999458111822605,0.0,0.0,0.0,0.04843197017908096,0.06780476123094559,0.017989017069339752,0.0,0.0,0.0,0.0,0.0,0.0,0.0,0.7710738746482801,1.1152042471065078,0.5,0.7028535008430481,-0.9794949889183044,0.04761573299765587,0.0,0.0,0.0,-0.024907870218157768,0.10655033588409424,0.01660524681210518,0.0,0.0,0.0,0.0,0.0,0.0,0.0,0.5793082093642488,0.8352319629571526,0.5
1.31,TAKEOFF,0.052382342517375946,0.7916343808174133,0.01352262869477272,0.0,0.0,0.0,0.020756559446454048,0.01660524681210518,0.08302623778581619,0.0,0.0,0.0,0.0,0.0,0.0,0.0,0.6351347685034578,0.3419191771693471,0.5,-0.8431528806686401,-0.09135692566633224,0.01999458111822605,0.0,0.0,0.0,0.04843197017908096,0.06780476123094559,0.017989017069339752,0.0,0.0,0.0,0.0,0.0,0.0,0.0,0.7710798523792737,1.1152091161263793,0.5,0.7028535008430481,-0.9794949889183044,0.04761573299765587,0.0,0.0,0.0,-0.024907870218157768,0.10655033588409424,0.01660524681210518,0.0,0.0,0.0,0.0,0.0,0.0,0.0,0.5794095692027351,0.8355439578175259,0.5
1.33,TAKEOFF,0.0640048161149025,0.8100827932357788,0.00465993769466877,0.0,0.0,0.0,-0.01107016485184431,0.00830262340605259,0.08856131881475449,0.0,0.0,0.0,0.0,0.0,0.0,0.0,0.6351397455643131,0.34191085964867296,0.5,-0.8431528806686401,-0.09135692566633224,0.01999458111822605,0.0,0.0,0.0,0.04843197017908096,0.06780476123094559,0.017989017069339752,0.0,0.0,0.0,0.0,0.0,0.0,0.0,0.771085794305884,1.1152139558560097,0.5,0.7028535008430481,-0.9794949889183044,0.04761573299765587,0.0,0.0,0.0,-0.024907870218157768,0.10655033588409424,0.01660524681210518,0.0,0.0,0.0,0.0,0.0,0.0,0.0,0.5795104899165203,0.8358540257425472,0.5
1.351,TAKEOFF,0.0640048161149025,0.8100827932357788,0.00465993769466877,0.0,0.0,0.0,-0.01107016485184431,0.00830262340605259,0.08856131881475449,0.0,0.0,0.0,0.0,0.0,0.0,0.0,0.6351446928959638,0.3419025921128052,0.5,-0.8431528806686401,-0.09135692566633224,0.01999458111822605,0.0,0.0,0.0,0.04843197017908096,0.06780476123094559,0.017989017069339752,0.0,0.0,0.0,0.0,0.0,0.0,0.0,0.7711420127149833,1.115259739790954,0.5,0.7028535008430481,-0.9794949889183044,0.04761573299765587,0.0,0.0,0.0,-0.024907870218157768,0.10655033588409424,0.01660524681210518,0.0,0.0,0.0,0.0,0.0,0.0,0.0,0.5796109720884859,0.8361621788606859,0.5
1.371,TAKEOFF,0.0640048161149025,0.8100827932357788,0.00465993769466877,0.0,0.0,0.0,-0.01107016485184431,0.00830262340605259,0.08856131881475449,0.0,0.0,0.0,0.0,0.0,0.0,0.0,0.6351496106751906,0.341894374260884,0.5,-0.8431528806686401,-0.09135692566633224,0.01999458111822605,0.0,0.0,0.0,0.04843197017908096,0.06780476123094559,0.017989017069339752,0.0,0.0,0.0,0.0,0.0,0.0,0.0,0.7711978992959813,1.1153052422896421,0.5,0.7028535008430481,-0.9794949889183044,0.04761573299765587,0.0,0.0,0.0,-0.024907870218157768,0.10655033588409424,0.01660524681210518,0.0,0.0,0.0,0.0,0.0,0.0,0.0,0.5797110163230451,0.8364684292224986,0.5
1.39,TAKEOFF,0.0640048161149025,0.8100827932357788,0.00465993769466877,0.0,0.0,0.0,-0.01107016485184431,0.00830262340605259,0.08856131881475449,0.0,0.0,0.0,0.0,0.0,0.0,0.0,0.6351544990777331,0.34188620579386564,0.5,-0.775254487991333,-0.1567603051662445,-0.0198060292750597,0.0,0.0,0.0,0.07057230174541473,0.029059182852506638,0.004151311703026295,0.0,0.0,0.0,0.0,0.0,0.0,0.0,0.7712534559734566,1.1153504651205903,0.5,0.8246579766273499,-1.0027741193771362,0.011202380992472172,0.0,0.0,0.0,-0.03321049362421036,0.004151311703026295,0.035978034138679504,0.0,0.0,0.0,0.0,0.0,0.0,0.0,0.5798106232457068,0.8367727888011279,0.5
1.41,TAKEOFF,0.0640048161149025,0.8100827932357788,0.00465993769466877,0.0,0.0,0.0,-0.01107016485184431,0.00830262340605259,0.08856131881475449,0.0,0.0,0.0,0.0,0.0,0.0,0.0,0.6352952063046976,0.3416512115362276,0.5,-0.775254487991333,-0.1567603051662445,-0.0198060292750597,0.0,0.0,0.0,0.07057230174541473,0.029059182852506638,0.004151311703026295,0.0,0.0,0.0,0.0,0.0,0.0,0.0,0.7713086846612489,1.1153954100407595,0.5,0.8246579766273499,-1.0027741193771362,0.011202380992472172,0.0,0.0,0.0,-0.03321049362421036,0.004151311703026295,0.035978034138679504,0.0,0.0,0.0,0.0,0.0,0.0,0.0,0.5798641079420085,0.8369359906150723,0.5
1.43,TAKEOFF,-0.01243596151471138,0.8847517371177673,0.042182888835668564,0.0,0.0,0.0,0.00830262340605259,0.005535082425922155,0.09271262586116791,0.0,0.0,0.0,0.0,0.0,0.0,0.0,0.6354351755848892,0.34141769092404833,0.5,-0.775254487991333,-0.1567603051662445,-0.0198060292750597,0.0,0.0,0.0,0.07057230174541473,0.029059182852506638,0.004151311703026295,0.0,0.0,0.0,0.0,0.0,0.0,0.0,0.7713635872625134,1.1154400787956358,0.5,0.8246579766273499,-1.0027741193771362,0.011202380992472172,0.0,0.0,0.0,-0.03321049362421036,0.004151311703026295,0.035978034138679504,0.0,0.0,0.0,0.0,0.0,0.0,0.0,0.5799173180228265,0.8370981980397272,0.5
1.451,TAKEOFF,-0.01243596151471138,0.8847517371177673,0.042182888835668564,0.0,0.0,0.0,0.00830262340605259,0.005535082425922155,0.09271262586116791,0.0,0.0,0.0,0.0,0.0,0.0,0.0,0.635574410045695,0.3411856344012388,0.5,-0.775254487991333,-0.1567603051662445,-0.0198060292750597,0.0,0.0,0.0,0.07057230174541473,0.029059182852506638,0.004151311703026295,0.0,0.0,0.0,0.0,0.0,0.0,0.0,0.7715659726279491,1.115604646590828,0.5,0.8246579766273499,-1.0027741193771362,0.011202380992472172,0.0,0.0,0.0,-0.03321049362421036,0.004151311703026295,0.035978034138679504,0.0,0.0,0.0,0.0,0.0,0.0,0.0,0.5799702545777391,0.8372594172100096,0.5
1.47,TAKEOFF,-0.01243596151471138,0.8847517371177673,0.042182888835668564,0.0,0.0,0.0,0.00830262340605259,0.005535082425922155,0.09271262586116791,0.0,0.0,0.0,0.0,0.0,0.0,0.0,0.635712912811785,0.34095503247672615,0.5,-0.775254487991333,-0.1567603051662445,-0.0198060292750597,0.0,0.0,0.0,0.07057230174541473,0.029059182852506638,0.004151311703026295,0.0,0.0,0.0,0.0,0.0,0.0,0.0,0.7717672145653656,1.1157681397673715,0.5,0.8246579766273499,-1.0027741193771362,0.011202380992472172,0.0,0.0,0.0,-0.03321049362421036,0.004151311703026295,0.035978034138679504,0.0,0.0,0.0,0.0,0.0,0.0,0.0,0.5800229186965371,0.8374196542222445,0.5
1.49,TAKEOFF,-0.01243596151471138,0.8847517371177673,0.042182888835668564,0.0,0.0,0.0,0.00830262340605259,0.005535082425922155,0.09271262586116791,0.0,0.0,0.0,0.0,0.0,0.0,0.0,0.635850687004927,0.34072587572398744,0.5,-0.7418298721313477,-0.1766466200351715,-0.002626922447234392,0.0,0.0,0.0,0.0013837706064805388,-0.06918852776288986,-0.0013837706064805388,0.0,0.0,0.0,0.0,0.0,0.0,0.0,0.7719673190500291,1.115930565786124,0.5,0.8430545926094055,-1.0961132049560547,-0.035871658474206924,0.0,0.0,0.0,-0.005535082425922155,-0.1286906749010086,0.04289688542485237,0.0,0.0,0.0,0.0,0.0,0.0,0.0,0.5800753114691407,0.8375789151344125,0.5
1.51,TAKEOFF,-0.01243596151471138,0.8847517371177673,0.042182888835668564,0.0,0.0,0.0,0.00830262340605259,0.005535082425922155,0.09271262586116791,0.0,0.0,0.0,0.0,0.0,0.0,0.0,0.6360255318039598,0.34043539278109053,0.5,-0.7418298721313477,-0.1766466200351715,-0.002626922447234392,0.0,0.0,0.0,0.0013837706064805388,-0.06918852776288986,-0.0013837706064805388,0.0,0.0,0.0,0.0,0.0,0.0,0.0,0.7721662920325993,1.1160919320516127,0.5,0.8430545926094055,-1.0961132049560547,-0.035871658474206924,0.0,0.0,0.0,-0.005535082425922155,-0.1286906749010086,0.04289688542485237,0.0,0.0,0.0,0.0,0.0,0.0,0.0,0.5801103806670138,0.8376854330429087,0.5
1.531,TAKEOFF,0.05889006704092026,0.8187498450279236,0.020848756656050682,0.0,0.0,0.0,0.12730689346790314,0.0982477143406868,0.09548017382621765,0.0,0.0,0.0,0.0,0.0,0.0,0.0,0.6361994901766092,0.3401467506944235,0.5,-0.7418298721313477,-0.1766466200351715,-0.002626922447234392,0.0,0.0,0.0,0.0013837706064805388,-0.06918852776288986,-0.0013837706064805388,0.0,0.0,0.0,0.0,0.0,0.0,0.0,0.7723641394391314,1.1162522459125022,0.5,0.8430545926094055,-1.0961132049560547,-0.035871658474206924,0.0,0.0,0.0,-0.005535082425922155,-0.1286906749010086,0.04289688542485237,0.0,0.0,0.0,0.0,0.0,0.0,0.0,0.5801452591788954,0.8377913053464184,0.5
1.551,TAKEOFF,0.05889006704092026,0.8187498450279236,0.020848756656050682,0.0,0.0,0.0,0.12730689346790314,0.0982477143406868,0.09548017382621765,0.0,0.0,0.0,0.0,0.0,0.0,0.0,0.6363725654411901,0.3398599373371193,0.5,-0.7418298721313477,-0.1766466200351715,-0.002626922447234392,0.0,0.0,0.0,0.0013837706064805388,-0.06918852776288986,-0.0013837706064805388,0.0,0.0,0.0,0.0,0.0,0.0,0.0,0.7724326419807092,1.1163077204575673,0.5,0.8430545926094055,-1.0961132049560547,-0.035871658474206924,0.0,0.0,0.0,-0.005535082425922155,-0.1286906749010086,0.04289688542485237,0.0,0.0,0.0,0.0,0.0,0.0,0.0,0.5801799479116683,0.8378965359926868,0.5
1.57,TAKEOFF,0.05889006704092026,0.8187498450279236,0.020848756656050682,0.0,0.0,0.0,0.12730689346790314,0.0982477143406868,0.09548017382621765,0.0,0.0,0.0,0.0,0.0,0.0,0.0,0.6365447609209625,0.3395749406663688,0.5,-0.8660314679145813,-0.12566697597503662,0.012289664708077908,0.0,0.0,0.0,-0.027675412595272064,-0.14806345105171204,0.00830262340605259,0.0,0.0,0.0,0.0,0.0,0.0,0.0,0.7725007415830308,1.1163628521812585,0.5,0.8430545926094055,-1.0961132049560547,-0.035871658474206924,0.0,0.0,0.0,-0.005535082425922155,-0.1286906749010086,0.04289688542485237,0.0,0.0,0.0,0.0,0.0,0.0,0.0,0.580214447769633,0.8380011289049504,0.5
1.591,TAKEOFF,0.05889006704092026,0.8187498450279236,0.020848756656050682,0.0,0.0,0.0,0.12730689346790314,0.0982477143406868,0.09548017382621765,0.0,0.0,0.0,0.0,0.0,0.0,0.0,0.6367160799437879,0.33929174872281226,0.5,-0.8660314679145813,-0.12566697597503662,0.012289664708077908,0.0,0.0,0.0,-0.027675412595272064,-0.14806345105171204,0.00830262340605259,0.0,0.0,0.0,0.0,0.0,0.0,0.0,0.7725684405656719,1.1164176432586692,0.5,0.8486777544021606,-1.0571759939193726,-0.015748431906104088,0.0,0.0,0.0,-0.13699328899383545,-0.058118365705013275,0.04289688542485237,0.0,0.0,0.0,0.0,0.0,0.0,0.0,0.5802991883975892,0.8382577628135277,0.5
1.611,TAKEOFF,0.05889006704092026,0.8187498450279236,0.020848756656050682,0.0,0.0,0.0,0.12730689346790314,0.0982477143406868,0.09548017382621765,0.0,0.0,0.0,0.0,0.0,0.0,0.0,0.6368852309018787,0.3390124862098453,0.5,-0.8660314679145813,-0.12566697597503662,0.012289664708077908,0.0,0.0,0.0,-0.027675412595272064,-0.14806345105171204,0.00830262340605259,0.0,0.0,0.0,0.0,0.0,0.0,0.0,0.7726357412354885,1.1164720958504495,0.5,0.8486777544021606,-1.0571759939193726,-0.015748431906104088,0.0,0.0,0.0,-0.13699328899383545,-0.058118365705013275,0.04289688542485237,0.0,0.0,0.0,0.0,0.0,0.0,0.0,0.5803835351326211,0.8385128190654159,0.5
1.63,TAKEOFF,0.028062917292118073,0.8663567304611206,0.03864093869924545,0.0,0.0,0.0,0.02629164233803749,0.015221476554870605,0.09409639984369278,0.0,0.0,0.0,0.0,0.0,0.0,0.0,0.6370535175280204,0.33873499053118217,0.5,-0.8660314679145813,-0.12566697597503662,0.012289664708077908,0.0,0.0,0.0,-0.027675412595272064,-0.14806345105171204,0.00830262340605259,0.0,0.0,0.0,0.0,0.0,0.0,0.0,0.7727026458866803,1.116526212102909,0.5,0.8486777544021606,-1.0571759939193726,-0.015748431906104088,0.0,0.0,0.0,-0.13699328899383545,-0.058118365705013275,0.04289688542485237,0.0,0.0,0.0,0.0,0.0,0.0,0.0,0.5804674889508432,0.8387663075287592,0.5
1.651,TAKEOFF,0.028062917292118073,0.8663567304611206,0.03864093869924545,0.0,0.0,0.0,0.02629164233803749,0.015221476554870605,0.09409639984369278,0.0,0.0,0.0,0.0,0.0,0.0,0.0,0.6372209431579468,0.33845925007444944,0.5,-0.8660314679145813,-0.12566697597503662,0.012289664708077908,0.0,0.0,0.0,-0.027675412595272064,-0.14806345105171204,0.00830262340605259,0.0,0.0,0.0,0.0,0.0,0.0,0.0,0.7728729160821735,1.1166638646559606,0.5,0.8486777544021606,-1.0571759939193726,-0.015748431906104088,0.0,0.0,0.0,-0.13699328899383545,-0.058118365705013275,0.04289688542485237,0.0,0.0,0.0,0.0,0.0,0.0,0.0,0.5805510508393873,0.8390182380085955,0.5
1.67,TAKEOFF,0.028062917292118073,0.8663567304611206,0.03864093869924545,0.0,0.0,0.0,0.02629164233803749,0.015221476554870605,0.09409639984369278,0.0,0.0,0.0,0.0,0.0,0.0,0.0,0.6373875111303434,0.33818525330758287,0.5,-0.9188529849052429,-0.17421120405197144,0.07971283793449402,0.0,0.0,0.0,0.04289688542485237,0.07057230174541473,0.03321049362421036,0.0,0.0,0.0,0.0,0.0,0.0,0.0,0.7730422144263833,1.1168006297076252,0.5,0.8486777544021606,-1.0571759939193726,-0.015748431906104088,0.0,0.0,0.0,-0.13699328899383545,-0.058118365705013275,0.04289688542485237,0.0,0.0,0.0,0.0,0.0,0.0,0.0,0.5806342217961314,0.8392686202472646,0.5
1.69,TAKEOFF,0.028062917292118073,0.8663567304611206,0.03864093869924545,0.0,0.0,0.0,0.02629164233803749,0.015221476554870605,0.09409639984369278,0.0,0.0,0.0,0.0,0.0,0.0,0.0,0.6375532247865423,0.3379129887782446,0.5,-0.9188529849052429,-0.17421120405197144,0.07971283793449402,0.0,0.0,0.0,0.04289688542485237,0.07057230174541473,0.03321049362421036,0.0,0.0,0.0,0.0,0.0,0.0,0.0,0.7732105461328955,1.1169365133018934,0.5,0.8145485520362854,-0.9432265758514404,-0.010180851444602013,0.0,0.0,0.0,-0.09548017382621765,-0.14114460349082947,0.062269676476716995,0.0,0.0,0.0,0.0,0.0,0.0,0.0,0.5807035552374825,0.8394770645243321,0.5
1.71,TAKEOFF,0.028062917292118073,0.8663567304611206,0.03864093869924545,0.0,0.0,0.0,0.02629164233803749,0.015221476554870605,0.09409639984369278,0.0,0.0,0.0,0.0,0.0,0.0,0.0,0.6376566001166283,0.3377433097659114,0.5,-0.9188529849052429,-0.17421120405197144,0.07971283793449402,0.0,0.0,0.0,0.04289688542485237,0.07057230174541473,0.03321049362421036,0.0,0.0,0.0,0.0,0.0,0.0,0.0,0.7733779163917907,1.1170715214382172,0.5,0.8145485520362854,-0.9432265758514404,-0.010180851444602013,0.0,0.0,0.0,-0.09548017382621765,-0.14114460349082947,0.062269676476716995,0.0,0.0,0.0,0.0,0.0,0.0,0.0,0.5807725483040276,0.8396842329654985,0.5
1.73,TAKEOFF,0.0427200049161911,0.8529088497161865,0.04276026412844658,0.0,0.0,0.0,0.058118365705013275,0.0013837706064805388,0.09271262586116791,0.0,0.0,0.0,0.0,0.0,0.0,0.0,0.6377594108734473,0.3375746827619723,0.5,-0.9188529849052429,-0.17421120405197144,0.07971283793449402,0.0,0.0,0.0,0.04289688542485237,0.07057230174541473,0.03321049362421036,0.0,0.0,0.0,0.0,0.0,0.0,0.0,0.7735443303696854,1.1172056600718696,0.5,0.8145485520362854,-0.9432265758514404,-0.010180851444602013,0.0,0.0,0.0,-0.09548017382621765,-0.14114460349082947,0.062269676476716995,0.0,0.0,0.0,0.0,0.0,0.0,0.0,0.5808412021241726,0.8398901334997242,0.5
1.751,TAKEOFF,0.0427200049161911,0.8529088497161865,0.04276026412844658,0.0,0.0,0.0,0.058118365705013275,0.0013837706064805388,0.09271262586116791,0.0,0.0,0.0,0.0,0.0,0.0,0.0,0.6378616597672594,0.33740710106649296,0.5,-0.9188529849052429,-0.17421120405197144,0.07971283793449402,0.0,0.0,0.0,0.04289688542485237,0.07057230174541473,0.03321049362421036,0.0,0.0,0.0,0.0,0.0,0.0,0.0,0.773683815422251,1.1173180172268617,0.5,0.8145485520362854,-0.9432265758514404,-0.010180851444602013,0.0,0.0,0.0,-0.09548017382621765,-0.14114460349082947,0.062269676476716995,0.0,0.0,0.0,0.0,0.0,0.0,0.0,0.580909517830638,0.8400947740056081,0.5
1.771,TAKEOFF,0.0427200049161911,0.8529088497161865,0.04276026412844658,0.0,0.0,0.0,0.058118365705013275,0.0013837706064805388,0.09271262586116791,0.0,0.0,0.0,0.0,0.0,0.0,0.0,0.6379633495003568,0.33724055802405223,0.5,-0.9193149209022522,-0.2087564468383789,0.1396445631980896,0.0,0.0,0.0,0.03044295310974121,0.14391213655471802,0.04428065940737724,0.0,0.0,0.0,0.0,0.0,0.0,0.0,0.7738224967974948,1.1174296589694852,0.5,0.8145485520362854,-0.9432265758514404,-0.010180851444602013,0.0,0.0,0.0,-0.09548017382621765,-0.14114460349082947,0.062269676476716995,0.0,0.0,0.0,0.0,0.0,0.0,0.0,0.5809774965602991,0.8402981623117145,0.5
1.791,TAKEOFF,0.0427200049161911,0.8529088497161865,0.04276026412844658,0.0,0.0,0.0,0.058118365705013275,0.0013837706064805388,0.09271262586116791,0.0,0.0,0.0,0.0,0.0,0.0,0.0,0.6380644827670084,0.3370750470234285,0.5,-0.9193149209022522,-0.2087564468383789,0.1396445631980896,0.0,0.0,0.0,0.03044295310974121,0.14391213655471802,0.04428065940737724,0.0,0.0,0.0,0.0,0.0,0.0,0.0,0.7739603789077808,1.1175405900762203,0.5,0.6814076900482178,-0.9243021011352539,0.028534498065710068,0.0,0.0,0.0,0.031826723366975784,-0.013837706297636032,0.07610738277435303,0.0,0.0,0.0,0.0,0.0,0.0,0.0,0.5810288556841577,0.8404516656160325,0.5
1.81,TAKEOFF,0.0427200049161911,0.8529088497161865,0.04276026412844658,0.0,0.0,0.0,0.058118365705013275,0.0013837706064805388,0.09271262586116791,0.0,0.0,0.0,0.0,0.0,0.0,0.0,0.6380114920199551,0.3371617547415798,0.5,-0.9193149209022522,-0.2087564468383789,0.1396445631980896,0.0,0.0,0.0,0.03044295310974121,0.14391213655471802,0.04428065940737724,0.0,0.0,0.0,0.0,0.0,0.0,0.0,0.7740974661441136,1.1176508152892757,0.5,0.6814076900482178,-0.9243021011352539,0.028534498065710068,0.0,0.0,0.0,0.031826723366975784,-0.013837706297636032,0.07610738277435303,0.0,0.0,0.0,0.0,0.0,0.0,0.0,0.5810799476914092,0.8406042341638571,0.5
1.83,TAKEOFF,0.0944443941116333,0.8033416867256165,0.03545338660478592,0.0,0.0,0.0,0.012453935109078884,-0.0,0.08441001176834106,0.0,0.0,0.0,0.0,0.0,0.0,0.0,0.6379588337713615,0.3372479511062863,0.5,-0.9193149209022522,-0.2087564468383789,0.1396445631980896,0.0,0.0,0.0,0.03044295310974121,0.14391213655471802,0.04428065940737724,0.0,0.0,0.0,0.0,0.0,0.0,0.0,0.7742337628762022,1.1177603393168576,0.5,0.6814076900482178,-0.9243021011352539,0.028534498065710068,0.0,0.0,0.0,0.031826723366975784,-0.013837706297636032,0.07610738277435303,0.0,0.0,0.0,0.0,0.0,0.0,0.0,0.5811307736901321,0.8407558737172,0.5
1.851,TAKEOFF,0.0944443941116333,0.8033416867256165,0.03545338660478592,0.0,0.0,0.0,0.012453935109078884,-0.0,0.08441001176834106,0.0,0.0,0.0,0.0,0.0,0.0,0.0,0.6379065058535924,0.3373336390768536,0.5,-0.9193149209022522,-0.2087564468383789,0.1396445631980896,0.0,0.0,0.0,0.03044295310974121,0.14391213655471802,0.04428065940737724,0.0,0.0,0.0,0.0,0.0,0.0,0.0,0.7742654801059881,1.1177858169718449,0.5,0.6814076900482178,-0.9243021011352539,0.028534498065710068,0.0,0.0,0.0,0.031826723366975784,-0.013837706297636032,0.07610738277435303,0.0,0.0,0.0,0.0,0.0,0.0,0.0,0.5811813347877359,0.8409065900018602,0.5
1.871,TAKEOFF,0.0944443941116333,0.8033416867256165,0.03545338660478592,0.0,0.0,0.0,0.012453935109078884,-0.0,0.08441001176834106,0.0,0.0,0.0,0.0,0.0,0.0,0.0,0.6378545061140566,0.33741882159617614,0.5,-0.9448344707489014,-0.23746559023857117,0.1783042997121811,0.0,0.0,0.0,0.023524099960923195,0.13837705552577972,0.045664429664611816,0.0,0.0,0.0,0.0,0.0,0.0,0.0,0.7742970087443126,1.1178111396295827,0.5,0.6814076900482178,-0.9243021011352539,0.028534498065710068,0.0,0.0,0.0,0.031826723366975784,-0.013837706297636032,0.07610738277435303,0.0,0.0,0.0,0.0,0.0,0.0,0.0,0.5812316320908937,0.8410563887076575,0.5
1.89,TAKEOFF,0.0944443941116333,0.8033416867256165,0.03545338660478592,0.0,0.0,0.0,0.012453935109078884,-0.0,0.08441001176834106,0.0,0.0,0.0,0.0,0.0,0.0,0.0,0.6378028324150932,0.3375035015908195,0.5,-0.9448344707489014,-0.23746559023857117,0.1783042997121811,0.0,0.0,0.0,0.023524099960923195,0.13837705552577972,0.045664429664611816,0.0,0.0,0.0,0.0,0.0,0.0,0.0,0.774328349902101,1.1178363082454394,0.5,0.6698698997497559,-0.8858040571212769,0.056806035339832306,0.0,0.0,0.0,0.07472360879182816,0.13145819306373596,0.06642098724842072,0.0,0.0,0.0,0.0,0.0,0.0,0.0,0.5812732284364065,0.8411801749838413,0.5
1.91,TAKEOFF,0.0944443941116333,0.8033416867256165,0.03545338660478592,0.0,0.0,0.0,0.012453935109078884,-0.0,0.08441001176834106,0.0,0.0,0.0,0.0,0.0,0.0,0.0,0.6377258075013138,0.3376297842306039,0.5,-0.9448344707489014,-0.23746559023857117,0.1783042997121811,0.0,0.0,0.0,0.023524099960923195,0.13837705552577972,0.045664429664611816,0.0,0.0,0.0,0.0,0.0,0.0,0.0,0.7743595046838627,1.11786132376875,0.5,0.6698698997497559,-0.8858040571212769,0.056806035339832306,0.0,0.0,0.0,0.07472360879182816,0.13145819306373596,0.06642098724842072,0.0,0.0,0.0,0.0,0.0,0.0,0.0,0.5813146019026105,0.8413032095674658,0.5
1.93,TAKEOFF,0.10659339278936386,0.7907134294509888,0.04625123739242554,0.0,0.0,0.0,-0.017989017069339752,-0.024907870218157768,0.0774911567568779,0.0,0.0,0.0,0.0,0.0,0.0,0.0,0.6376492755924422,0.33775532798933,0.5,-0.9448344707489014,-0.23746559023857117,0.1783042997121811,0.0,0.0,0.0,0.023524099960923195,0.13837705552577972,0.045664429664611816,0.0,0.0,0.0,0.0,0.0,0.0,0.0,0.7743904741877259,1.117886187142855,0.5,0.6698698997497559,-0.8858040571212769,0.056806035339832306,0.0,0.0,0.0,0.07472360879182816,0.13145819306373596,0.06642098724842072,0.0,0.0,0.0,0.0,0.0,0.0,0.0,0.5813557535054387,0.8414254970703555,0.5
1.951,TAKEOFF,0.10659339278936386,0.7907134294509888,0.04625123739242554,0.0,0.0,0.0,-0.017989017069339752,-0.024907870218157768,0.0774911567568779,0.0,0.0,0.0,0.0,0.0,0.0,0.0,0.6375732333658494,0.33788013706771275,0.5,-0.9448344707489014,-0.23746559023857117,0.1783042997121811,0.0,0.0,0.0,0.023524099960923195,0.13837705552577972,0.045664429664611816,0.0,0.0,0.0,0.0,0.0,0.0,0.0,0.774392593107836,1.1178878881609828,0.5,0.6698698997497559,-0.8858040571212769,0.056806035339832306,0.0,0.0,0.0,0.07472360879182816,0.13145819306373596,0.06642098724842072,0.0,0.0,0.0,0.0,0.0,0.0,0.0,0.5813966842586058,0.8415470420755499,0.5
1.971,TAKEOFF,0.10659339278936386,0.7907134294509888,0.04625123739242554,0.0,0.0,0.0,-0.017989017069339752,-0.024907870218157768,0.0774911567568779,0.0,0.0,0.0,0.0,0.0,0.0,0.0,0.6374976775231204,0.3380042156441781,0.5,-0.8901599645614624,-0.23268553614616394,0.13179726898670197,0.0,0.0,0.0,-0.06365344673395157,0.12177181243896484,0.05258328467607498,0.0,0.0,0.0,0.0,0.0,0.0,0.0,0.7743946993220597,1.1178895789634924,0.5,0.6698698997497559,-0.8858040571212769,0.056806035339832306,0.0,0.0,0.0,0.07472360879182816,0.13145819306373596,0.06642098724842072,0.0,0.0,0.0,0.0,0.0,0.0,0.0,0.5814373951735751,0.8416678491374876,0.5
1.99,TAKEOFF,0.10659339278936386,0.7907134294509888,0.04625123739242554,0.0,0.0,0.0,-0.017989017069339752,-0.024907870218157768,0.0774911567568779,0.0,0.0,0.0,0.0,0.0,0.0,0.0,0.6374226047898605,0.3381275678749586,0.5,-0.8901599645614624,-0.23268553614616394,0.13179726898670197,0.0,0.0,0.0,-0.06365344673395157,0.12177181243896484,0.05258328467607498,0.0,0.0,0.0,0.0,0.0,0.0,0.0,0.7743967929065408,1.1178912596117907,0.5,0.6398544907569885,-0.8417709469795227,0.10423120856285095,0.0,0.0,0.0,0.07333984225988388,0.06918852776288986,0.045664429664611816,0.0,0.0,0.0,0.0,0.0,0.0,0.0,0.5814691256597898,0.8417619485767606,0.5
2.01,TAKEOFF,0.10659339278936386,0.7907134294509888,0.04625123739242554,0.0,0.0,0.0,-0.017989017069339752,-0.024907870218157768,0.0774911567568779,0.0,0.0,0.0,0.0,0.0,0.0,0.0,0.6372984357610008,0.33833173721586063,0.5,-0.8901599645614624,-0.23268553614616394,0.13179726898670197,0.0,0.0,0.0,-0.06365344673395157,0.12177181243896484,0.05258328467607498,0.0,0.0,0.0,0.0,0.0,0.0,0.0,0.7743988739369676,1.1178929301669156,0.5,0.6398544907569885,-0.8417709469795227,0.10423120856285095,0.0,0.0,0.0,0.07333984225988388,0.06918852776288986,0.045664429664611816,0.0,0.0,0.0,0.0,0.0,0.0,0.0,0.581500681197047,0.8418554782136245,0.5
2.03,TAKEOFF,0.13085497915744781,0.7565476298332214,0.059038471430540085,0.0,0.0,0.0,-0.04704819992184639,-0.04428065940737724,0.0774911567568779,0.0,0.0,0.0,0.0,0.0,0.0,0.0,0.6371750923403515,0.33853473053344607,0.5,-0.8901599645614624,-0.23268553614616394,0.13179726898670197,0.0,0.0,0.0,-0.06365344673395157,0.12177181243896484,0.05258328467607498,0.0,0.0,0.0,0.0,0.0,0.0,0.0,0.7744009424885752,1.117894590689537,0.5,0.6398544907569885,-0.8417709469795227,0.10423120856285095,0.0,0.0,0.0,0.07333984225988388,0.06918852776288986,0.045664429664611816,0.0,0.0,0.0,0.0,0.0,0.0,0.0,0.5815320626495424,0.8419484415266669,0.5
2.051,TAKEOFF,0.13085497915744781,0.7565476298332214,0.059038471430540085,0.0,0.0,0.0,-0.04704819992184639,-0.04428065940737724,0.0774911567568779,0.0,0.0,0.0,0.0,0.0,0.0,0.0,0.6370525686291939,0.33873655426617766,0.5,-0.8901599645614624,-0.23268553614616394,0.13179726898670197,0.0,0.0,0.0,-0.06365344673395157,0.12177181243896484,0.05258328467607498,0.0,0.0,0.0,0.0,0.0,0.0,0.0,0.7743191112822414,1.1178288895015305,0.5,0.6398544907569885,-0.8417709469795227,0.10423120856285095,0.0,0.0,0.0,0.07333984225988388,0.06918852776288986,0.045664429664611816,0.0,0.0,0.0,0.0,0.0,0.0,0.0,0.58156327087852,0.8420408419729336,0.5
2.07,TAKEOFF,0.13085497915744781,0.7565476298332214,0.059038471430540085,0.0,0.0,0.0,-0.04704819992184639,-0.04428065940737724,0.0774911567568779,0.0,0.0,0.0,0.0,0.0,0.0,0.0,0.6369308587751528,0.33893721482183403,0.5,-0.8901599645614624,-0.23268553614616394,0.13179726898670197,0.0,0.0,0.0,-0.06365344673395157,0.12177181243896484,0.05258328467607498,0.0,0.0,0.0,0.0,0.0,0.0,0.0,0.7742377824526099,1.1177635683375395,0.5,0.6398544907569885,-0.8417709469795227,0.10423120856285095,0.0,0.0,0.0,0.07333984225988388,0.06918852776288986,0.045664429664611816,0.0,0.0,0.0,0.0,0.0,0.0,0.0,0.581594306742264,0.8421326829880657,0.5
2.09,TAKEOFF,0.13085497915744781,0.7565476298332214,0.059038471430540085,0.0,0.0,0.0,-0.04704819992184639,-0.04428065940737724,0.0774911567568779,0.0,0.0,0.0,0.0,0.0,0.0,0.0,0.6368099569717951,0.3391367185775888,0.5,-0.8612157702445984,-0.2464584857225418,0.06880028545856476,0.0,0.0,0.0,-0.01660524681210518,0.05119951069355011,0.049815740436315536,0.0,0.0,0.0,0.0,0.0,0.0,0.0,0.7741569528515932,1.1176986250890637,0.5,0.7219842672348022,-0.8483098149299622,0.10030373185873032,0.0,0.0,0.0,0.12453935295343399,0.11623673141002655,0.029059182852506638,0.0,0.0,0.0,0.0,0.0,0.0,0.0,0.5816251710960888,0.8422239679864343,0.5
2.11,TAKEOFF,0.13085497915744781,0.7565476298332214,0.059038471430540085,0.0,0.0,0.0,-0.04704819992184639,-0.04428065940737724,0.0774911567568779,0.0,0.0,0.0,0.0,0.0,0.0,0.0,0.6367854136614309,0.33917723962146606,0.5,-0.8612157702445984,-0.2464584857225418,0.06880028545856476,0.0,0.0,0.0,-0.01660524681210518,0.05119951069355011,0.049815740436315536,0.0,0.0,0.0,0.0,0.0,0.0,0.0,0.7740766193515494,1.1176340576581651,0.5,0.7219842672348022,-0.8483098149299622,0.10030373185873032,0.0,0.0,0.0,0.12453935295343399,0.11623673141002655,0.029059182852506638,0.0,0.0,0.0,0.0,0.0,0.0,0.0,0.5816432189699137,0.8422773243446001,0.5
2.131,TAKEOFF,0.19548627734184265,0.6846825480461121,0.03869348019361496,0.0,0.0,0.0,-0.024907870218157768,-0.015221476554870605,0.08441001176834106,0.0,0.0,0.0,0.0,0.0,0.0,0.0,0.6367610207816976,0.33921751945942163,0.5,-0.8612157702445984,-0.2464584857225418,0.06880028545856476,0.0,0.0,0.0,-0.01660524681210518,0.05119951069355011,0.049815740436315536,0.0,0.0,0.0,0.0,0.0,0.0,0.0,0.7739967788451414,1.117569863957431,0.5,0.7219842672348022,-0.8483098149299622,0.10030373185873032,0.0,0.0,0.0,0.12453935295343399,0.11623673141002655,0.029059182852506638,0.0,0.0,0.0,0.0,0.0,0.0,0.0,0.5816611635203507,0.8423303588853264,0.5
2.15,TAKEOFF,0.19548627734184265,0.6846825480461121,0.03869348019361496,0.0,0.0,0.0,-0.024907870218157768,-0.015221476554870605,0.08441001176834106,0.0,0.0,0.0,0.0,0.0,0.0,0.0,0.6367367773922249,0.33925755951547026,0.5,-0.8612157702445984,-0.2464584857225418,0.06880028545856476,0.0,0.0,0.0,-0.01660524681210518,0.05119951069355011,0.049815740436315536,0.0,0.0,0.0,0.0,0.0,0.0,0.0,0.7737271423287184,1.1173529036818832,0.5,0.7219842672348022,-0.8483098149299622,0.10030373185873032,0.0,0.0,0.0,0.12453935295343399,0.11623673141002655,0.029059182852506638,0.0,0.0,0.0,0.0,0.0,0.0,0.0,0.5816790053077976,0.8423830735591511,0.5
2.171,TAKEOFF,0.19548627734184265,0.6846825480461121,0.03869348019361496,0.0,0.0,0.0,-0.024907870218157768,-0.015221476554870605,0.08441001176834106,0.0,0.0,0.0,0.0,0.0,0.0,0.0,0.6367126825587345,0.33929736120536474,0.5,-0.7614883184432983,-0.26777806878089905,0.023188317194581032,0.0,0.0,0.0,0.024907870218157768,0.05535082519054413,0.07333984225988388,0.0,0.0,0.0,0.0,0.0,0.0,0.0,0.7734592476965172,1.1171370910714833,0.5,0.7219842672348022,-0.8483098149299622,0.10030373185873032,0.0,0.0,0.0,0.12453935295343399,0.11623673141002655,0.029059182852506638,0.0,0.0,0.0,0.0,0.0,0.0,0.0,0.5816967448900052,0.8424354703046824,0.5
2.19,TAKEOFF,0.19548627734184265,0.6846825480461121,0.03869348019361496,0.0,0.0,0.0,-0.024907870218157768,-0.015221476554870605,0.08441001176834106,0.0,0.0,0.0,0.0,0.0,0.0,0.0,0.6366887353529977,0.3393369259366422,0.5,-0.7614883184432983,-0.26777806878089905,0.023188317194581032,0.0,0.0,0.0,0.024907870218157768,0.05535082519054413,0.07333984225988388,0.0,0.0,0.0,0.0,0.0,0.0,0.0,0.7731930831001921,1.1169224211541584,0.5,0.6962474584579468,-0.8962019681930542,0.08997255563735962,0.0,0.0,0.0,0.07887492328882217,-0.03459426388144493,0.004151311703026295,0.0,0.0,0.0,0.0,0.0,0.0,0.0,0.5816816661602173,0.8423909338341427,0.5
2.21,TAKEOFF,0.19548627734184265,0.6846825480461121,0.03869348019361496,0.0,0.0,0.0,-0.024907870218157768,-0.015221476554870605,0.08441001176834106,0.0,0.0,0.0,0.0,0.0,0.0,0.0,0.6366515280340023,0.3393984122220633,0.5,-0.7614883184432983,-0.26777806878089905,0.023188317194581032,0.0,0.0,0.0,0.024907870218157768,0.05535082519054413,0.07333984225988388,0.0,0.0,0.0,0.0,0.0,0.0,0.0,0.772928636777601,1.1167088889635612,0.5,0.6962474584579468,-0.8962019681930542,0.08997255563735962,0.0,0.0,0.0,0.07887492328882217,-0.03459426388144493,0.004151311703026295,0.0,0.0,0.0,0.0,0.0,0.0,0.0,0.5816666813616681,0.8423466634115092,0.5
2.23,TAKEOFF,0.18097104132175446,0.718552827835083,0.04432404413819313,0.0,0.0,0.0,-0.07195606827735901,-0.05258328467607498,0.08994509279727936,0.0,0.0,0.0,0.0,0.0,0.0,0.0,0.636614551257817,0.33945953400597295,0.5,-0.7614883184432983,-0.26777806878089905,0.023188317194581032,0.0,0.0,0.0,0.024907870218157768,0.05535082519054413,0.07333984225988388,0.0,0.0,0.0,0.0,0.0,0.0,0.0,0.7726658970521365,1.1164964895393439,0.5,0.6962474584579468,-0.8962019681930542,0.08997255563735962,0.0,0.0,0.0,0.07887492328882217,-0.03459426388144493,0.004151311703026295,0.0,0.0,0.0,0.0,0.0,0.0,0.0,0.5816517898894783,0.8423026574547696,0.5
2.251,TAKEOFF,0.18097104132175446,0.718552827835083,0.04432404413819313,0.0,0.0,0.0,-0.07195606827735901,-0.05258328467607498,0.08994509279727936,0.0,0.0,0.0,0.0,0.0,0.0,0.0,0.6365778035543808,0.33952029342168594,0.5,-0.7614883184432983,-0.26777806878089905,0.023188317194581032,0.0,0.0,0.0,0.024907870218157768,0.05535082519054413,0.07333984225988388,0.0,0.0,0.0,0.0,0.0,0.0,0.0,0.7725008409829408,1.116362932640892,0.5,0.6962474584579468,-0.8962019681930542,0.08997255563735962,0.0,0.0,0.0,0.07887492328882217,-0.03459426388144493,0.004151311703026295,0.0,0.0,0.0,0.0,0.0,0.0,0.0,0.5816369911428907,0.842258914391228,0.5
2.271,TAKEOFF,0.18097104132175446,0.718552827835083,0.04432404413819313,0.0,0.0,0.0,-0.07195606827735901,-0.05258328467607498,0.08994509279727936,0.0,0.0,0.0,0.0,0.0,0.0,0.0,0.6365412834634815,0.33958069259037515,0.5,-0.7073017954826355,-0.2709921896457672,0.03116973303258419,0.0,0.0,0.0,-0.07057230174541473,-0.13837705552577972,0.08302623778581619,0.0,0.0,0.0,0.0,0.0,0.0,0.0,0.7723368220978006,1.1162301192081137,0.5,0.6962474584579468,-0.8962019681930542,0.08997255563735962,0.0,0.0,0.0,0.07887492328882217,-0.03459426388144493,0.004151311703026295,0.0,0.0,0.0,0.0,0.0,0.0,0.0,0.5816222845252386,0.8422154326574514,0.5
2.29,TAKEOFF,0.18097104132175446,0.718552827835083,0.04432404413819313,0.0,0.0,0.0,-0.07195606827735901,-0.05258328467607498,0.08994509279727936,0.0,0.0,0.0,0.0,0.0,0.0,0.0,0.6365049895346857,0.33964073362113584,0.5,-0.7073017954826355,-0.2709921896457672,0.03116973303258419,0.0,0.0,0.0,-0.07057230174541473,-0.13837705552577972,0.08302623778581619,0.0,0.0,0.0,0.0,0.0,0.0,0.0,0.772173833633238,1.116098045488925,0.5,0.6625828146934509,-0.9108582139015198,0.07549460232257843,0.0,0.0,0.0,0.02629164233803749,-0.05950213596224785,0.0013837706064805388,0.0,0.0,0.0,0.0,0.0,0.0,0.0,0.5815930146189472,0.8421288603256254,0.5
2.311,TAKEOFF,0.18097104132175446,0.718552827835083,0.04432404413819313,0.0,0.0,0.0,-0.07195606827735901,-0.05258328467607498,0.08994509279727936,0.0,0.0,0.0,0.0,0.0,0.0,0.0,0.6364368415345536,0.3397535136911381,0.5,-0.7073017954826355,-0.2709921896457672,0.03116973303258419,0.0,0.0,0.0,-0.07057230174541473,-0.13837705552577972,0.08302623778581619,0.0,0.0,0.0,0.0,0.0,0.0,0.0,0.7720118688724553,1.1159667077449913,0.5,0.6625828146934509,-0.9108582139015198,0.07549460232257843,0.0,0.0,0.0,0.02629164233803749,-0.05950213596224785,0.0013837706064805388,0.0,0.0,0.0,0.0,0.0,0.0,0.0,0.5815639333998998,0.8420428030106997,0.5
2.33,TAKEOFF,0.18202939629554749,0.7283825874328613,0.057087719440460205,0.0,0.0,0.0,-0.041513118892908096,-0.04289688542485237,0.09271262586116791,0.0,0.0,0.0,0.0,0.0,0.0,0.0,0.6363691269700716,0.3398656319101127,0.5,-0.7073017954826355,-0.2709921896457672,0.03116973303258419,0.0,0.0,0.0,-0.07057230174541473,-0.13837705552577972,0.08302623778581619,0.0,0.0,0.0,0.0,0.0,0.0,0.0,0.7718509211449889,1.115836102251754,0.5,0.6625828146934509,-0.9108582139015198,0.07549460232257843,0.0,0.0,0.0,0.02629164233803749,-0.05950213596224785,0.0013837706064805388,0.0,0.0,0.0,0.0,0.0,0.0,0.0,0.5815350395802901,0.8419572576773737,0.5
2.35,TAKEOFF,0.18202939629554749,0.7283825874328613,0.057087719440460205,0.0,0.0,0.0,-0.041513118892908096,-0.04289688542485237,0.09271262586116791,0.0,0.0,0.0,0.0,0.0,0.0,0.0,0.636301842950136,0.3399770920664517,0.5,-0.7073017954826355,-0.2709921896457672,0.03116973303258419,0.0,0.0,0.0,-0.07057230174541473,-0.13837705552577972,0.08302623778581619,0.0,0.0,0.0,0.0,0.0,0.0,0.0,0.7717194123595823,1.1157293173232927,0.5,0.6625828146934509,-0.9108582139015198,0.07549460232257843,0.0,0.0,0.0,0.02629164233803749,-0.05950213596224785,0.0013837706064805388,0.0,0.0,0.0,0.0,0.0,0.0,0.0,0.5815063318818894,0.8418722213078683,0.5
2.371,TAKEOFF,0.18202939629554749,0.7283825874328613,0.057087719440460205,0.0,0.0,0.0,-0.041513118892908096,-0.04289688542485237,0.09271262586116791,0.0,0.0,0.0,0.0,0.0,0.0,0.0,0.6362349866044062,0.3400878979280972,0.5,-0.7073017954826355,-0.2709921896457672,0.03116973303258419,0.0,0.0,0.0,-0.07057230174541473,-0.13837705552577972,0.08302623778581619,0.0,0.0,0.0,0.0,0.0,0.0,0.0,0.7715887225108444,1.1156231363120024,0.5,0.6625828146934509,-0.9108582139015198,0.07549460232257843,0.0,0.0,0.0,0.02629164233803749,-0.05950213596224785,0.0013837706064805388,0.0,0.0,0.0,0.0,0.0,0.0,0.0,0.5814778090359669,0.8417876909018294,0.5
2.391,TAKEOFF,0.18202939629554749,0.7283825874328613,0.057087719440460205,0.0,0.0,0.0,-0.041513118892908096,-0.04289688542485237,0.09271262586116791,0.0,0.0,0.0,0.0,0.0,0.0,0.0,0.6361685550831414,0.34019805324263475,0.5,-0.6798890233039856,-0.21075966954231262,0.11726188659667969,0.0,0.0,0.0,-0.03874557837843895,-0.14667968451976776,0.0774911567568779,0.0,0.0,0.0,0.0,0.0,0.0,0.0,0.7714588463378249,1.1155175560428519,0.5,0.7160513401031494,-1.007352590560913,0.082795150578022,0.0,0.0,0.0,-0.013837706297636032,0.0027675412129610777,0.006918853148818016,0.0,0.0,0.0,0.0,0.0,0.0,0.0,0.5814494697832111,0.8417036634762316,0.5
2.411,TAKEOFF,0.18202939629554749,0.7283825874328613,0.057087719440460205,0.0,0.0,0.0,-0.041513118892908096,-0.04289688542485237,0.09271262586116791,0.0,0.0,0.0,0.0,0.0,0.0,0.0,0.6361891487469661,0.3401638995619899,0.5,-0.6798890233039856,-0.21075966954231262,0.11726188659667969,0.0,0.0,0.0,-0.03874557837843895,-0.14667968451976776,0.0774911567568779,0.0,0.0,0.0,0.0,0.0,0.0,0.0,0.7713297786151093,1.1154125733543498,0.5,0.7160513401031494,-1.007352590560913,0.082795150578022,0.0,0.0,0.0,-0.013837706297636032,0.0027675412129610777,0.006918853148818016,0.0,0.0,0.0,0.0,0.0,0.0,0.0,0.5814450749131417,0.8416906287732319,0.5
2.43,TAKEOFF,0.12937411665916443,0.7659924030303955,0.08599666506052017,0.0,0.0,0.0,-0.027675412595272064,-0.03736180439591408,0.08856131881475449,0.0,0.0,0.0,0.0,0.0,0.0,0.0,0.6362096210985664,0.34012995216006886,0.5,-0.6798890233039856,-0.21075966954231262,0.11726188659667969,0.0,0.0,0.0,-0.03874557837843895,-0.14667968451976776,0.0774911567568779,0.0,0.0,0.0,0.0,0.0,0.0,0.0,0.7712015141525623,1.115308185098531,0.5,0.7160513401031494,-1.007352590560913,0.082795150578022,0.0,0.0,0.0,-0.013837706297636032,0.0027675412129610777,0.006918853148818016,0.0,0.0,0.0,0.0,0.0,0.0,0.0,0.5814407067084447,0.8416776721786011,0.5
2.451,TAKEOFF,0.12937411665916443,0.7659924030303955,0.08599666506052017,0.0,0.0,0.0,-0.027675412595272064,-0.03736180439591408,0.08856131881475449,0.0,0.0,0.0,0.0,0.0,0.0,0.0,0.6362299728388109,0.340096209783115,0.5,-0.6798890233039856,-0.21075966954231262,0.11726188659667969,0.0,0.0,0.0,-0.03874557837843895,-0.14667968451976776,0.0774911567568779,0.0,0.0,0.0,0.0,0.0,0.0,0.0,0.7711643870146097,1.1152779581432841,0.5,0.7160513401031494,-1.007352590560913,0.082795150578022,0.0,0.0,0.0,-0.013837706297636032,0.0027675412129610777,0.006918853148818016,0.0,0.0,0.0,0.0,0.0,0.0,0.0,0.581436365005587,0.8416647932248906,0.5
2.471,TAKEOFF,0.12937411665916443,0.7659924030303955,0.08599666506052017,0.0,0.0,0.0,-0.027675412595272064,-0.03736180439591408,0.08856131881475449,0.0,0.0,0.0,0.0,0.0,0.0,0.0,0.6362502046646881,0.3400626711850844,0.5,-0.7009270191192627,-0.18800781667232513,0.16333086788654327,0.0,0.0,0.0,0.03459426388144493,-0.09409639984369278,0.06642098724842072,0.0,0.0,0.0,0.0,0.0,0.0,0.0,0.7711274850298375,1.1152479096139865,0.5,0.7160513401031494,-1.007352590560913,0.082795150578022,0.0,0.0,0.0,-0.013837706297636032,0.0027675412129610777,0.006918853148818016,0.0,0.0,0.0,0.0,0.0,0.0,0.0,0.5814320496420592,0.8416519914474414,0.5
2.49,TAKEOFF,0.12937411665916443,0.7659924030303955,0.08599666506052017,0.0,0.0,0.0,-0.027675412595272064,-0.03736180439591408,0.08856131881475449,0.0,0.0,0.0,0.0,0.0,0.0,0.0,0.6362703172693246,0.340029335127597,0.5,-0.7009270191192627,-0.18800781667232513,0.16333086788654327,0.0,0.0,0.0,0.03459426388144493,-0.09409639984369278,0.06642098724842072,0.0,0.0,0.0,0.0,0.0,0.0,0.0,0.7710908068189588,1.1152180384753931,0.5,0.6943983435630798,-0.9904167652130127,0.0845360979437828,0.0,0.0,0.0,-0.10378279536962509,-0.027675412595272064,0.01107016485184431,0.0,0.0,0.0,0.0,0.0,0.0,0.0,0.5814444820478243,0.8416888703241097,0.5
2.51,TAKEOFF,0.12937411665916443,0.7659924030303955,0.08599666506052017,0.0,0.0,0.0,-0.027675412595272064,-0.03736180439591408,0.08856131881475449,0.0,0.0,0.0,0.0,0.0,0.0,0.0,0.6362627409014509,0.3400418921629726,0.5,-0.7009270191192627,-0.18800781667232513,0.16333086788654327,0.0,0.0,0.0,0.03459426388144493,-0.09409639984369278,0.06642098724842072,0.0,0.0,0.0,0.0,0.0,0.0,0.0,0.7710543510112972,1.1151883436980454,0.5,0.6943983435630798,-0.9904167652130127,0.0845360979437828,0.0,0.0,0.0,-0.10378279536962509,-0.027675412595272064,0.01107016485184431,0.0,0.0,0.0,0.0,0.0,0.0,0.0,0.5814568422297345,0.8417255271282755,0.5
2.53,TAKEOFF,0.08766470104455948,0.7967855930328369,0.10383329540491104,0.0,0.0,0.0,0.02629164233803749,-0.0,0.08441001176834106,0.0,0.0,0.0,0.0,0.0,0.0,0.0,0.6362552102959579,0.34005437403965594,0.5,-0.7009270191192627,-0.18800781667232513,0.16333086788654327,0.0,0.0,0.0,0.03459426388144493,-0.09409639984369278,0.06642098724842072,0.0,0.0,0.0,0.0,0.0,0.0,0.0,0.771018116244732,1.1151588242582404,0.5,0.6943983435630798,-0.9904167652130127,0.0845360979437828,0.0,0.0,0.0,-0.10378279536962509,-0.027675412595272064,0.01107016485184431,0.0,0.0,0.0,0.0,0.0,0.0,0.0,0.5814691305927204,0.8417619632017854,0.5
2.551,TAKEOFF,0.08766470104455948,0.7967855930328369,0.10383329540491104,0.0,0.0,0.0,0.02629164233803749,-0.0,0.08441001176834106,0.0,0.0,0.0,0.0,0.0,0.0,0.0,0.6362477251746362,0.340066781206396,0.5,-0.7009270191192627,-0.18800781667232513,0.16333086788654327,0.0,0.0,0.0,0.03459426388144493,-0.09409639984369278,0.06642098724842072,0.0,0.0,0.0,0.0,0.0,0.0,0.0,0.7710494756548978,1.1151843721564303,0.5,0.6943983435630798,-0.9904167652130127,0.0845360979437828,0.0,0.0,0.0,-0.10378279536962509,-0.027675412595272064,0.01107016485184431,0.0,0.0,0.0,0.0,0.0,0.0,0.0,0.5814813475396239,0.8417981798783247,0.5
2.571,TAKEOFF,0.08766470104455948,0.7967855930328369,0.10383329540491104,0.0,0.0,0.0,0.02629164233803749,-0.0,0.08441001176834106,0.0,0.0,0.0,0.0,0.0,0.0,0.0,0.6362402852609899,0.34007911410927627,0.5,-0.9130873680114746,-0.072487972676754,0.1796232908964157,0.0,0.0,0.0,0.029059182852506638,-0.00830262340605259,0.05119951069355011,0.0,0.0,0.0,0.0,0.0,0.0,0.0,0.7710806486153666,1.1152097646720764,0.5,0.6943983435630798,-0.9904167652130127,0.0845360979437828,0.0,0.0,0.0,-0.10378279536962509,-0.027675412595272064,0.01107016485184431,0.0,0.0,0.0,0.0,0.0,0.0,0.0,0.5814934934712064,0.8418341784834674,0.5
2.59,TAKEOFF,0.08766470104455948,0.7967855930328369,0.10383329540491104,0.0,0.0,0.0,0.02629164233803749,-0.0,0.08441001176834106,0.0,0.0,0.0,0.0,0.0,0.0,0.0,0.6362328902802242,0.3400913731917294,0.5,-0.9130873680114746,-0.072487972676754,0.1796232908964157,0.0,0.0,0.0,0.029059182852506638,-0.00830262340605259,0.05119951069355011,0.0,0.0,0.0,0.0,0.0,0.0,0.0,0.7711116362242785,1.115235002762428,0.5,0.6032152771949768,-1.0599713325500488,0.13876229524612427,0.0,0.0,0.0,-0.045664429664611816,0.0013837706064805388,0.01660524681210518,0.0,0.0,0.0,0.0,0.0,0.0,0.0,0.5816072874575691,0.842171080885386,0.5
2.61,TAKEOFF,0.08766470104455948,0.7967855930328369,0.10383329540491104,0.0,0.0,0.0,0.02629164233803749,-0.0,0.08441001176834106,0.0,0.0,0.0,0.0,0.0,0.0,0.0,0.6361538187561483,0.3402224959408596,0.5,-0.9130873680114746,-0.072487972676754,0.1796232908964157,0.0,0.0,0.0,0.029059182852506638,-0.00830262340605259,0.05119951069355011,0.0,0.0,0.0,0.0,0.0,0.0,0.0,0.7711424395734325,1.1152600873786938,0.5,0.6032152771949768,-1.0599713325500488,0.13876229524612427,0.0,0.0,0.0,-0.045664429664611816,0.0013837706064805388,0.01660524681210518,0.0,0.0,0.0,0.0,0.0,0.0,0.0,0.5817205965383938,0.8425058949781046,0.5
2.63,TAKEOFF,0.11717548966407776,0.7387250065803528,0.15587465465068817,0.0,0.0,0.0,0.06365344673395157,0.08441001176834106,0.08302623778581619,0.0,0.0,0.0,0.0,0.0,0.0,0.0,0.6360752548255442,0.340352851946977,0.5,-0.9130873680114746,-0.072487972676754,0.1796232908964157,0.0,0.0,0.0,0.029059182852506638,-0.00830262340605259,0.05119951069355011,0.0,0.0,0.0,0.0,0.0,0.0,0.0,0.7711730597483228,1.115285019466082,0.5,0.6032152771949768,-1.0599713325500488,0.13876229524612427,0.0,0.0,0.0,-0.045664429664611816,0.0013837706064805388,0.01660524681210518,0.0,0.0,0.0,0.0,0.0,0.0,0.0,0.5818334212169647,0.8428386339766516,0.5
2.651,TAKEOFF,0.11717548966407776,0.7387250065803528,0.15587465465068817,0.0,0.0,0.0,0.06365344673395157,0.08441001176834106,0.08302623778581619,0.0,0.0,0.0,0.0,0.0,0.0,0.0,0.6359971950510831,0.34048244556302515,0.5,-0.9130873680114746,-0.072487972676754,0.1796232908964157,0.0,0.0,0.0,0.029059182852506638,-0.00830262340605259,0.05119951069355011,0.0,0.0,0.0,0.0,0.0,0.0,0.0,0.7710594327222846,1.1151924832488627,0.5,0.6032152771949768,-1.0599713325500488,0.13876229524612427,0.0,0.0,0.0,-0.045664429664611816,0.0013837706064805388,0.01660524681210518,0.0,0.0,0.0,0.0,0.0,0.0,0.0,0.5819457620229642,0.8431693110106502,0.5
2.67,TAKEOFF,0.11717548966407776,0.7387250065803528,0.15587465465068817,0.0,0.0,0.0,0.06365344673395157,0.08441001176834106,0.08302623778581619,0.0,0.0,0.0,0.0,0.0,0.0,0.0,0.6359196360206555,0.3406112811189382,0.5,-0.9356674551963806,-0.12807156145572662,0.1997634470462799,0.0,0.0,0.0,0.15359853208065033,0.13837705552577972,0.045664429664611816,0.0,0.0,0.0,0.0,0.0,0.0,0.0,0.7709465098592215,1.1151004747493758,0.5,0.6032152771949768,-1.0599713325500488,0.13876229524612427,0.0,0.0,0.0,-0.045664429664611816,0.0013837706064805388,0.01660524681210518,0.0,0.0,0.0,0.0,0.0,0.0,0.0,0.5820576195119532,0.8434979391248671,0.5
2.69,TAKEOFF,0.11717548966407776,0.7387250065803528,0.15587465465068817,0.0,0.0,0.0,0.06365344673395157,0.08441001176834106,0.08302623778581619,0.0,0.0,0.0,0.0,0.0,0.0,0.0,0.6358425743471667,0.34073936292173984,0.5,-0.9356674551963806,-0.12807156145572662,0.1997634470462799,0.0,0.0,0.0,0.15359853208065033,0.13837705552577972,0.045664429664611816,0.0,0.0,0.0,0.0,0.0,0.0,0.0,0.7708342866727478,1.1150089911356942,0.5,0.5653817653656006,-1.070117712020874,0.18029744923114777,0.0,0.0,0.0,-0.07887492328882217,0.0982477143406868,0.027675412595272064,0.0,0.0,0.0,0.0,0.0,0.0,0.0,0.58214548962165,0.8437556580927755,0.5
2.71,TAKEOFF,0.11717548966407776,0.7387250065803528,0.15587465465068817,0.0,0.0,0.0,0.06365344673395157,0.08441001176834106,0.08302623778581619,0.0,0.0,0.0,0.0,0.0,0.0,0.0,0.6357323721255425,0.34092265220437384,0.5,-0.9356674551963806,-0.12807156145572662,0.1997634470462799,0.0,0.0,0.0,0.15359853208065033,0.13837705552577972,0.045664429664611816,0.0,0.0,0.0,0.0,0.0,0.0,0.0,0.7707227587064043,1.1149180295887864,0.5,0.5653817653656006,-1.070117712020874,0.18029744923114777,0.0,0.0,0.0,-0.07887492328882217,0.0982477143406868,0.027675412595272064,0.0,0.0,0.0,0.0,0.0,0.0,0.0,0.5822329484071409,0.8440117912023694,0.5
2.73,TAKEOFF,0.11403369903564453,0.7813509702682495,0.18532727658748627,0.0,0.0,0.0,-0.03874557837843895,0.04704819992184639,0.08164246380329132,0.0,0.0,0.0,0.0,0.0,0.0,0.0,0.6356228958701695,0.34110488066819583,0.5,-0.9356674551963806,-0.12807156145572662,0.1997634470462799,0.0,0.0,0.0,0.15359853208065033,0.13837705552577972,0.045664429664611816,0.0,0.0,0.0,0.0,0.0,0.0,0.0,0.770611921533445,1.1148275873024913,0.5,0.5653817653656006,-1.070117712020874,0.18029744923114777,0.0,0.0,0.0,-0.07887492328882217,0.0982477143406868,0.027675412595272064,0.0,0.0,0.0,0.0,0.0,0.0,0.0,0.5823199969321494,0.8442663483902585,0.5
2.751,TAKEOFF,0.11403369903564453,0.7813509702682495,0.18532727658748627,0.0,0.0,0.0,-0.03874557837843895,0.04704819992184639,0.08164246380329132,0.0,0.0,0.0,0.0,0.0,0.0,0.0,0.6355141404641662,0.3412860541898466,0.5,-0.9356674551963806,-0.12807156145572662,0.1997634470462799,0.0,0.0,0.0,0.15359853208065033,0.13837705552577972,0.045664429664611816,0.0,0.0,0.0,0.0,0.0,0.0,0.0,0.7706144984781471,1.1148296905695807,0.5,0.5653817653656006,-1.070117712020874,0.18029744923114777,0.0,0.0,0.0,-0.07887492328882217,0.0982477143406868,0.027675412595272064,0.0,0.0,0.0,0.0,0.0,0.0,0.0,0.5824066362711097,0.844519339529322,0.5
2.771,TAKEOFF,0.11403369903564453,0.7813509702682495,0.18532727658748627,0.0,0.0,0.0,-0.03874557837843895,0.04704819992184639,0.08164246380329132,0.0,0.0,0.0,0.0,0.0,0.0,0.0,0.6354061008302061,0.34146617861694956,0.5,-0.9574500322341919,-0.2375798523426056,0.18416288495063782,0.0,0.0,0.0,0.08025868982076645,0.14667968451976776,0.04704819992184639,0.0,0.0,0.0,0.0,0.0,0.0,0.0,0.7706170599727362,1.1148317812029096,0.5,0.5653817653656006,-1.070117712020874,0.18029744923114777,0.0,0.0,0.0,-0.07887492328882217,0.0982477143406868,0.027675412595272064,0.0,0.0,0.0,0.0,0.0,0.0,0.0,0.5824928675088927,0.8447707744291246,0.5
2.791,TAKEOFF,0.11403369903564453,0.7813509702682495,0.18532727658748627,0.0,0.0,0.0,-0.03874557837843895,0.04704819992184639,0.08164246380329132,0.0,0.0,0.0,0.0,0.0,0.0,0.0,0.6352987719301798,0.34164525976820315,0.5,-0.9574500322341919,-0.2375798523426056,0.18416288495063782,0.0,0.0,0.0,0.08025868982076645,0.14667968451976776,0.04704819992184639,0.0,0.0,0.0,0.0,0.0,0.0,0.0,0.7706196061097748,1.1148338592784497,0.5,0.540835976600647,-1.0679043531417847,0.21030554175376892,0.0,0.0,0.0,-0.05535082519054413,0.1300744265317917,0.03044295310974121,0.0,0.0,0.0,0.0,0.0,0.0,0.0,0.5825300900814272,0.8448791967784323,0.5
2.81,TAKEOFF,0.11403369903564453,0.7813509702682495,0.18532727658748627,0.0,0.0,0.0,-0.03874557837843895,0.04704819992184639,0.08164246380329132,0.0,0.0,0.0,0.0,0.0,0.0,0.0,0.6351678509703117,0.34186389642647713,0.5,-0.9574500322341919,-0.2375798523426056,0.18416288495063782,0.0,0.0,0.0,0.08025868982076645,0.14667968451976776,0.04704819992184639,0.0,0.0,0.0,0.0,0.0,0.0,0.0,0.7706221369812718,1.1148359248717157,0.5,0.540835976600647,-1.0679043531417847,0.21030554175376892,0.0,0.0,0.0,-0.05535082519054413,0.1300744265317917,0.03044295310974121,0.0,0.0,0.0,0.0,0.0,0.0,0.0,0.582567109846586,0.8449869615439546,0.5
2.83,TAKEOFF,0.09454739093780518,0.7718135118484497,0.2063400000333786,0.0,0.0,0.0,-0.005535082425922155,-0.012453935109078884,0.07610738277435303,0.0,0.0,0.0,0.0,0.0,0.0,0.0,0.6350378075752369,0.34208127635188973,0.5,-0.9574500322341919,-0.2375798523426056,0.18416288495063782,0.0,0.0,0.0,0.08025868982076645,0.14667968451976776,0.04704819992184639,0.0,0.0,0.0,0.0,0.0,0.0,0.0,0.7706246526786853,1.1148379780577655,0.5,0.540835976600647,-1.0679043531417847,0.21030554175376892,0.0,0.0,0.0,-0.05535082519054413,0.1300744265317917,0.03044295310974121,0.0,0.0,0.0,0.0,0.0,0.0,0.0,0.5826039277742924,0.8450940727516848,0.5
2.851,TAKEOFF,0.09454739093780518,0.7718135118484497,0.2063400000333786,0.0,0.0,0.0,-0.005535082425922155,-0.012453935109078884,0.07610738277435303,0.0,0.0,0.0,0.0,0.0,0.0,0.0,0.6349086354013824,0.3422974063873786,0.5,-0.9574500322341919,-0.2375798523426056,0.18416288495063782,0.0,0.0,0.0,0.08025868982076645,0.14667968451976776,0.04704819992184639,0.0,0.0,0.0,0.0,0.0,0.0,0.0,0.7705958815137675,1.1148144951221777,0.5,0.540835976600647,-1.0679043531417847,0.21030554175376892,0.0,0.0,0.0,-0.05535082519054413,0.1300744265317917,0.03044295310974121,0.0,0.0,0.0,0.0,0.0,0.0,0.0,0.5826405448316275,0.8452005344025666,0.5
2.871,TAKEOFF,0.09454739093780518,0.7718135118484497,0.2063400000333786,0.0,0.0,0.0,-0.005535082425922155,-0.012453935109078884,0.07610738277435303,0.0,0.0,0.0,0.0,0.0,0.0,0.0,0.6347803281557091,0.3425122933438457,0.5,-0.9772410988807678,-0.2569197714328766,0.25398027896881104,0.0,0.0,0.0,-0.00830262340605259,0.16882002353668213,0.041513118892908096,0.0,0.0,0.0,0.0,0.0,0.0,0.0,0.770567284416352,1.1147911513194055,0.5,0.540835976600647,-1.0679043531417847,0.21030554175376892,0.0,0.0,0.0,-0.05535082519054413,0.1300744265317917,0.03044295310974121,0.0,0.0,0.0,0.0,0.0,0.0,0.0,0.5826769619828108,0.8453063504726535,0.5
2.891,TAKEOFF,0.09454739093780518,0.7718135118484497,0.2063400000333786,0.0,0.0,0.0,-0.005535082425922155,-0.012453935109078884,0.07610738277435303,0.0,0.0,0.0,0.0,0.0,0.0,0.0,0.6346528795952674,0.3427259440002296,0.5,-0.9772410988807678,-0.2569197714328766,0.25398027896881104,0.0,0.0,0.0,-0.00830262340605259,0.16882002353668213,0.041513118892908096,0.0,0.0,0.0,0.0,0.0,0.0,0.0,0.770538860324907,1.1147679458358544,0.5,0.5394783020019531,-1.0537625551223755,0.23177491128444672,0.0,0.0,0.0,-0.035978034138679504,0.11070165038108826,0.03459426388144493,0.0,0.0,0.0,0.0,0.0,0.0,0.0,0.5827080382983493,0.8453965971778754,0.5
2.91,TAKEOFF,0.09454739093780518,0.7718135118484497,0.2063400000333786,0.0,0.0,0.0,-0.005535082425922155,-0.012453935109078884,0.07610738277435303,0.0,0.0,0.0,0.0,0.0,0.0,0.0,0.6345201697850666,0.3429486286603111,0.5,-0.9772410988807678,-0.2569197714328766,0.25398027896881104,0.0,0.0,0.0,-0.00830262340605259,0.16882002353668213,0.041513118892908096,0.0,0.0,0.0,0.0,0.0,0.0,0.0,0.7705106081844725,1.114744877862555,0.5,0.5394783020019531,-1.0537625551223755,0.23177491128444672,0.0,0.0,0.0,-0.035978034138679504,0.11070165038108826,0.03459426388144493,0.0,0.0,0.0,0.0,0.0,0.0,0.0,0.5827389423830125,0.8454862975025536,0.5
2.93,TAKEOFF,0.1109408512711525,0.7261261343955994,0.19220532476902008,0.0,0.0,0.0,-0.004151311703026295,0.01107016485184431,0.07195606827735901,0.0,0.0,0.0,0.0,0.0,0.0,0.0,0.6343883515928044,0.3431700340142532,0.5,-0.9772410988807678,-0.2569197714328766,0.25398027896881104,0.0,0.0,0.0,-0.00830262340605259,0.16882002353668213,0.041513118892908096,0.0,0.0,0.0,0.0,0.0,0.0,0.0,0.7704825269466189,1.1147219465951401,0.5,0.5394783020019531,-1.0537625551223755,0.23177491128444672,0.0,0.0,0.0,-0.035978034138679504,0.11070165038108826,0.03459426388144493,0.0,0.0,0.0,0.0,0.0,0.0,0.0,0.5827696750992079,0.8455754547813755,0.5
2.951,TAKEOFF,0.1109408512711525,0.7261261343955994,0.19220532476902008,0.0,0.0,0.0,-0.004151311703026295,0.01107016485184431,0.07195606827735901,0.0,0.0,0.0,0.0,0.0,0.0,0.0,0.6342574185519909,0.343390167017847,0.5,-0.9772410988807678,-0.2569197714328766,0.25398027896881104,0.0,0.0,0.0,-0.00830262340605259,0.16882002353668213,0.041513118892908096,0.0,0.0,0.0,0.0,0.0,0.0,0.0,0.7703381609069311,1.114604011967685,0.5,0.5394783020019531,-1.0537625551223755,0.23177491128444672,0.0,0.0,0.0,-0.035978034138679504,0.11070165038108826,0.03459426388144493,0.0,0.0,0.0,0.0,0.0,0.0,0.0,0.5828002373062272,0.845664072328386,0.5
2.97,TAKEOFF,0.1109408512711525,0.7261261343955994,0.19220532476902008,0.0,0.0,0.0,-0.004151311703026295,0.01107016485184431,0.07195606827735901,0.0,0.0,0.0,0.0,0.0,0.0,0.0,0.6341273642478482,0.34360903459447795,0.5,-0.9381833672523499,-0.29963788390159607,0.26994314789772034,0.0,0.0,0.0,-0.04428065940737724,0.12592312693595886,0.040129344910383224,0.0,0.0,0.0,0.0,0.0,0.0,0.0,0.7701946973823318,1.1144867405034309,0.5,0.5394783020019531,-1.0537625551223755,0.23177491128444672,0.0,0.0,0.0,-0.035978034138679504,0.11070165038108826,0.03459426388144493,0.0,0.0,0.0,0.0,0.0,0.0,0.0,0.5828306298602408,0.8457521534371178,0.5
2.99,TAKEOFF,0.1109408512711525,0.7261261343955994,0.19220532476902008,0.0,0.0,0.0,-0.004151311703026295,0.01107016485184431,0.07195606827735901,0.0,0.0,0.0,0.0,0.0,0.0,0.0,0.6339981823168542,0.34382664363519544,0.5,-0.9381833672523499,-0.29963788390159607,0.26994314789772034,0.0,0.0,0.0,-0.04428065940737724,0.12592312693595886,0.040129344910383224,0.0,0.0,0.0,0.0,0.0,0.0,0.0,0.7700521305367711,1.1143701287662173,0.5,0.710706889629364,-0.9714850187301636,0.17519491910934448,0.0,0.0,0.0,-0.027675412595272064,0.11485295742750168,0.03459426388144493,0.0,0.0,0.0,0.0,0.0,0.0,0.0,0.5828328821493812,0.8457586790643581,0.5
3.01,TAKEOFF,0.1109408512711525,0.7261261343955994,0.19220532476902008,0.0,0.0,0.0,-0.004151311703026295,0.01107016485184431,0.07195606827735901,0.0,0.0,0.0,0.0,0.0,0.0,0.0,0.6340158915013446,0.34379679985857764,0.5,-0.9381833672523499,-0.29963788390159607,0.26994314789772034,0.0,0.0,0.0,-0.04428065940737724,0.12592312693595886,0.040129344910383224,0.0,0.0,0.0,0.0,0.0,0.0,0.0,0.7699104545740068,1.1142541733338127,0.5,0.710706889629364,-0.9714850187301636,0.17519491910934448,0.0,0.0,0.0,-0.027675412595272064,0.11485295742750168,0.03459426388144493,0.0,0.0,0.0,0.0,0.0,0.0,0.0,0.5828351209991937,0.8457651655121532,0.5
3.03,TAKEOFF,0.16486196219921112,0.8045544028282166,0.2057878077030182,0.0,0.0,0.0,-0.05258328467607498,-0.01107016485184431,0.07057230174541473,0.0,0.0,0.0,0.0,0.0,0.0,0.0,0.6340334961412866,0.34376713615972504,0.5,-0.9381833672523499,-0.29963788390159607,0.26994314789772034,0.0,0.0,0.0,-0.04428065940737724,0.12592312693595886,0.040129344910383224,0.0,0.0,0.0,0.0,0.0,0.0,0.0,0.7697696637373106,1.1141388707979134,0.5,0.710706889629364,-0.9714850187301636,0.17519491910934448,0.0,0.0,0.0,-0.027675412595272064,0.11485295742750168,0.03459426388144493,0.0,0.0,0.0,0.0,0.0,0.0,0.0,0.5828373464894236,0.8457716130158863,0.5
3.05,TAKEOFF,0.16486196219921112,0.8045544028282166,0.2057878077030182,0.0,0.0,0.0,-0.05258328467607498,-0.01107016485184431,0.07057230174541473,0.0,0.0,0.0,0.0,0.0,0.0,0.0,0.6340509968434246,0.3437376514461235,0.5,-0.9381833672523499,-0.29963788390159607,0.26994314789772034,0.0,0.0,0.0,-0.04428065940737724,0.12592312693595886,0.040129344910383224,0.0,0.0,0.0,0.0,0.0,0.0,0.0,0.7698594456019291,1.11421240709607,0.5,0.710706889629364,-0.9714850187301636,0.17519491910934448,0.0,0.0,0.0,-0.027675412595272064,0.11485295742750168,0.03459426388144493,0.0,0.0,0.0,0.0,0.0,0.0,0.0,0.5828395586993488,0.8457780218095247,0.5
3.071,TAKEOFF,0.16486196219921112,0.8045544028282166,0.2057878077030182,0.0,0.0,0.0,-0.05258328467607498,-0.01107016485184431,0.07057230174541473,0.0,0.0,0.0,0.0,0.0,0.0,0.0,0.6340683942111089,0.3437083446319565,0.5,-0.8766176700592041,-0.32808366417884827,0.3042546212673187,0.0,0.0,0.0,-0.10516656935214996,0.020756559446454048,0.040129344910383224,0.0,0.0,0.0,0.0,0.0,0.0,0.0,0.7699487028694973,1.1142854849652555,0.5,0.710706889629364,-0.9714850187301636,0.17519491910934448,0.0,0.0,0.0,-0.027675412595272064,0.11485295742750168,0.03459426388144493,0.0,0.0,0.0,0.0,0.0,0.0,0.0,0.5828417577077817,0.8457843921256276,0.5
3.09,TAKEOFF,0.16486196219921112,0.8045544028282166,0.2057878077030182,0.0,0.0,0.0,-0.05258328467607498,-0.01107016485184431,0.07057230174541473,0.0,0.0,0.0,0.0,0.0,0.0,0.0,0.6340856888443139,0.3436792146380627,0.5,-0.8766176700592041,-0.32808366417884827,0.3042546212673187,0.0,0.0,0.0,-0.10516656935214996,0.020756559446454048,0.040129344910383224,0.0,0.0,0.0,0.0,0.0,0.0,0.0,0.7700374385157054,1.1143581073592812,0.5,0.8613651990890503,-0.9026393890380859,0.08165457099676132,0.0,0.0,0.0,0.023524099960923195,0.00830262340605259,0.03044295310974121,0.0,0.0,0.0,0.0,0.0,0.0,0.0,0.5828171240049924,0.8457130173954504,0.5
3.11,TAKEOFF,0.16486196219921112,0.8045544028282166,0.2057878077030182,0.0,0.0,0.0,-0.05258328467607498,-0.01107016485184431,0.07057230174541473,0.0,0.0,0.0,0.0,0.0,0.0,0.0,0.6342514015235085,0.34340028837336656,0.5,-0.8766176700592041,-0.32808366417884827,0.3042546212673187,0.0,0.0,0.0,-0.10516656935214996,0.020756559446454048,0.040129344910383224,0.0,0.0,0.0,0.0,0.0,0.0,0.0,0.7701256555005042,1.1144302772118526,0.5,0.8613651990890503,-0.9026393890380859,0.08165457099676132,0.0,0.0,0.0,0.023524099960923195,0.00830262340605259,0.03044295310974121,0.0,0.0,0.0,0.0,0.0,0.0,0.0,0.5827926470059815,0.8456420678420646,0.5
3.13,TAKEOFF,0.08085058629512787,0.8356637954711914,0.2945556044578552,0.0,0.0,0.0,0.05119951069355011,-0.08441001176834106,0.07472360879182816,0.0,0.0,0.0,0.0,0.0,0.0,0.0,0.6344162693721909,0.34312312450770943,0.5,-0.8766176700592041,-0.32808366417884827,0.3042546212673187,0.0,0.0,0.0,-0.10516656935214996,0.020756559446454048,0.040129344910383224,0.0,0.0,0.0,0.0,0.0,0.0,0.0,0.7702133567681728,1.114501997436718,0.5,0.8613651990890503,-0.9026393890380859,0.08165457099676132,0.0,0.0,0.0,0.023524099960923195,0.00830262340605259,0.03044295310974121,0.0,0.0,0.0,0.0,0.0,0.0,0.0,0.5827683256644078,0.8455715409522584,0.5
3.151,TAKEOFF,0.08085058629512787,0.8356637954711914,0.2945556044578552,0.0,0.0,0.0,0.05119951069355011,-0.08441001176834106,0.07472360879182816,0.0,0.0,0.0,0.0,0.0,0.0,0.0,0.6345802956241758,0.34284771148315024,0.5,-0.8766176700592041,-0.32808366417884827,0.3042546212673187,0.0,0.0,0.0,-0.10516656935214996,0.020756559446454048,0.040129344910383224,0.0,0.0,0.0,0.0,0.0,0.0,0.0,0.7703460474737922,1.1146104565452957,0.5,0.8613651990890503,-0.9026393890380859,0.08165457099676132,0.0,0.0,0.0,0.023524099960923195,0.00830262340605259,0.03044295310974121,0.0,0.0,0.0,0.0,0.0,0.0,0.0,0.5827441589414709,0.8455014342274266,0.5
3.171,TAKEOFF,0.08085058629512787,0.8356637954711914,0.2945556044578552,0.0,0.0,0.0,0.05119951069355011,-0.08441001176834106,0.07472360879182816,0.0,0.0,0.0,0.0,0.0,0.0,0.0,0.634743483516634,0.34257403782141815,0.5,-0.8176806569099426,-0.33236899971961975,0.30871355533599854,0.0,0.0,0.0,-0.08579377084970474,-0.03459426388144493,0.03321049362421036,0.0,0.0,0.0,0.0,0.0,0.0,0.0,0.7704779727306417,1.1147182273349696,0.5,0.8613651990890503,-0.9026393890380859,0.08165457099676132,0.0,0.0,0.0,0.023524099960923195,0.00830262340605259,0.03044295310974121,0.0,0.0,0.0,0.0,0.0,0.0,0.0,0.5827201458058502,0.845431745183489,0.5
3.19,TAKEOFF,0.08085058629512787,0.8356637954711914,0.2945556044578552,0.0,0.0,0.0,0.05119951069355011,-0.08441001176834106,0.07472360879182816,0.0,0.0,0.0,0.0,0.0,0.0,0.0,0.6349058362897858,0.34230209212333745,0.5,-0.8176806569099426,-0.33236899971961975,0.30871355533599854,0.0,0.0,0.0,-0.08579377084970474,-0.03459426388144493,0.03321049362421036,0.0,0.0,0.0,0.0,0.0,0.0,0.0,0.7706091367536345,1.1148253143764628,0.5,0.9421383738517761,-0.8897197246551514,0.1478811353445053,0.0,0.0,0.0,0.10239902138710022,-0.1342257410287857,0.023524099960923195,0.0,0.0,0.0,0.0,0.0,0.0,0.0,0.582680576328865,0.845316849056735,0.5
3.21,TAKEOFF,0.08085058629512787,0.8356637954711914,0.2945556044578552,0.0,0.0,0.0,0.05119951069355011,-0.08441001176834106,0.07472360879182816,0.0,0.0,0.0,0.0,0.0,0.0,0.0,0.6351590551925538,0.34187859284078265,0.5,-0.8176806569099426,-0.33236899971961975,0.30871355533599854,0.0,0.0,0.0,-0.08579377084970474,-0.03459426388144493,0.03321049362421036,0.0,0.0,0.0,0.0,0.0,0.0,0.0,0.7707395437371001,1.114931722207957,0.5,0.9421383738517761,-0.8897197246551514,0.1478811353445053,0.0,0.0,0.0,0.10239902138710022,-0.1342257410287857,0.023524099960923195,0.0,0.0,0.0,0.0,0.0,0.0,0.0,0.5826412673306318,0.8452026343669788,0.5
3.23,TAKEOFF,0.08689432591199875,0.8334492444992065,0.27396708726882935,0.0,0.0,0.0,0.05396705120801926,0.01107016485184431,0.07472360879182816,0.0,0.0,0.0,0.0,0.0,0.0,0.0,0.6354110998466578,0.3414578410671022,0.5,-0.8176806569099426,-0.33236899971961975,0.30871355533599854,0.0,0.0,0.0,-0.08579377084970474,-0.03459426388144493,0.03321049362421036,0.0,0.0,0.0,0.0,0.0,0.0,0.0,0.7708691978548488,1.1150374553353464,0.5,0.9421383738517761,-0.8897197246551514,0.1478811353445053,0.0,0.0,0.0,0.10239902138710022,-0.1342257410287857,0.023524099960923195,0.0,0.0,0.0,0.0,0.0,0.0,0.0,0.5826022169739441,0.8450890971251774,0.5
3.251,TAKEOFF,0.08689432591199875,0.8334492444992065,0.27396708726882935,0.0,0.0,0.0,0.05396705120801926,0.01107016485184431,0.07472360879182816,0.0,0.0,0.0,0.0,0.0,0.0,0.0,0.6356619730023253,0.3410398181251517,0.5,-0.8176806569099426,-0.33236899971961975,0.30871355533599854,0.0,0.0,0.0,-0.08579377084970474,-0.03459426388144493,0.03321049362421036,0.0,0.0,0.0,0.0,0.0,0.0,0.0,0.7709951338466601,1.1151400987144506,0.5,0.9421383738517761,-0.8897197246551514,0.1478811353445053,0.0,0.0,0.0,0.10239902138710022,-0.1342257410287857,0.023524099960923195,0.0,0.0,0.0,0.0,0.0,0.0,0.0,0.5825634234358722,0.8449762333649484,0.5
3.271,TAKEOFF,0.08689432591199875,0.8334492444992065,0.27396708726882935,0.0,0.0,0.0,0.05396705120801926,0.01107016485184431,0.07472360879182816,0.0,0.0,0.0,0.0,0.0,0.0,0.0,0.6359116774474352,0.34062450547095674,0.5,-0.688794732093811,-0.21715590357780457,0.11219472438097,0.0,0.0,0.0,-0.07333984225988388,-0.07195606827735901,0.027675412595272064,0.0,0.0,0.0,0.0,0.0,0.0,0.0,0.7711203417619299,1.115242092435114,0.5,0.9421383738517761,-0.8897197246551514,0.1478811353445053,0.0,0.0,0.0,0.10239902138710022,-0.1342257410287857,0.023524099960923195,0.0,0.0,0.0,0.0,0.0,0.0,0.0,0.5825248849076383,0.8448640391424516,0.5
3.29,TAKEOFF,0.08689432591199875,0.8334492444992065,0.27396708726882935,0.0,0.0,0.0,0.05396705120801926,0.01107016485184431,0.07472360879182816,0.0,0.0,0.0,0.0,0.0,0.0,0.0,0.6361602160065983,0.3402118846927558,0.5,-0.688794732093811,-0.21715590357780457,0.11219472438097,0.0,0.0,0.0,-0.07333984225988388,-0.07195606827735901,0.027675412595272064,0.0,0.0,0.0,0.0,0.0,0.0,0.0,0.771244825630647,1.115343440792326,0.5,0.8512914776802063,-0.9804102182388306,0.20287099480628967,0.0,0.0,0.0,0.0774911567568779,-0.19926296174526215,0.020756559446454048,0.0,0.0,0.0,0.0,0.0,0.0,0.0,0.5825127647333451,0.8448287396905508,0.5
3.311,TAKEOFF,0.08689432591199875,0.8334492444992065,0.27396708726882935,0.0,0.0,0.0,0.05396705120801926,0.01107016485184431,0.07472360879182816,0.0,0.0,0.0,0.0,0.0,0.0,0.0,0.6363201124904097,0.33994682203187376,0.5,-0.688794732093811,-0.21715590357780457,0.11219472438097,0.0,0.0,0.0,-0.07333984225988388,-0.07195606827735901,0.027675412595272064,0.0,0.0,0.0,0.0,0.0,0.0,0.0,0.7713685894628284,1.1154441480506891,0.5,0.8512914776802063,-0.9804102182388306,0.20287099480628967,0.0,0.0,0.0,0.0774911567568779,-0.19926296174526215,0.020756559446454048,0.0,0.0,0.0,0.0,0.0,0.0,0.0,0.5825007194561566,0.8447936512882804,0.5
3.331,TAKEOFF,0.07228507846593857,0.8155307769775391,0.28005823493003845,0.0,0.0,0.0,0.0567345917224884,-0.005535082425922155,0.06642098724842072,0.0,0.0,0.0,0.0,0.0,0.0,0.0,0.636479185099018,0.33968343153574365,0.5,-0.688794732093811,-0.21715590357780457,0.11219472438097,0.0,0.0,0.0,-0.07333984225988388,-0.07195606827735901,0.027675412595272064,0.0,0.0,0.0,0.0,0.0,0.0,0.0,0.7714916372485862,1.1155442184446545,0.5,0.8512914776802063,-0.9804102182388306,0.20287099480628967,0.0,0.0,0.0,0.0774911567568779,-0.19926296174526215,0.020756559446454048,0.0,0.0,0.0,0.0,0.0,0.0,0.0,0.5824887486007012,0.8447587726784135,0.5
3.351,TAKEOFF,0.07228507846593857,0.8155307769775391,0.28005823493003845,0.0,0.0,0.0,0.0567345917224884,-0.005535082425922155,0.06642098724842072,0.0,0.0,0.0,0.0,0.0,0.0,0.0,0.6366374371130485,0.33942170226150564,0.5,-0.688794732093811,-0.21715590357780457,0.11219472438097,0.0,0.0,0.0,-0.07333984225988388,-0.07195606827735901,0.027675412595272064,0.0,0.0,0.0,0.0,0.0,0.0,0.0,0.7715623621984404,1.115601712083596,0.5,0.8512914776802063,-0.9804102182388306,0.20287099480628967,0.0,0.0,0.0,0.0774911567568779,-0.19926296174526215,0.020756559446454048,0.0,0.0,0.0,0.0,0.0,0.0,0.0,0.5824768516947699,0.8447241026111558,0.5
3.37,TAKEOFF,0.07228507846593857,0.8155307769775391,0.28005823493003845,0.0,0.0,0.0,0.0567345917224884,-0.005535082425922155,0.06642098724842072,0.0,0.0,0.0,0.0,0.0,0.0,0.0,0.6367948718140412,0.3391616233415932,0.5,-0.6446634531021118,-0.17142558097839355,0.0667794942855835,0.0,0.0,0.0,0.049815740436315536,-0.14114460349082947,0.03044295310974121,0.0,0.0,0.0,0.0,0.0,0.0,0.0,0.771632671453172,1.115658850112759,0.5,0.8512914776802063,-0.9804102182388306,0.20287099480628967,0.0,0.0,0.0,0.0774911567568779,-0.19926296174526215,0.020756559446454048,0.0,0.0,0.0,0.0,0.0,0.0,0.0,0.5824650282692936,0.8446896398441025,0.5
3.39,TAKEOFF,0.07228507846593857,0.8155307769775391,0.28005823493003845,0.0,0.0,0.0,0.0567345917224884,-0.005535082425922155,0.06642098724842072,0.0,0.0,0.0,0.0,0.0,0.0,0.0,0.6369514924841874,0.3389031839831896,0.5,-0.6446634531021118,-0.17142558097839355,0.0667794942855835,0.0,0.0,0.0,0.049815740436315536,-0.14114460349082947,0.03044295310974121,0.0,0.0,0.0,0.0,0.0,0.0,0.0,0.7717025674018194,1.1157156347919028,0.5,0.8839156627655029,-0.9796715378761292,0.2301323562860489,0.0,0.0,0.0,-0.11485295742750168,-0.07195606827735901,-0.005535082425922155,0.0,0.0,0.0,0.0,0.0,0.0,0.0,0.582466616182994,0.8446942686707007,0.5
3.41,TAKEOFF,0.07228507846593857,0.8155307769775391,0.28005823493003845,0.0,0.0,0.0,0.0567345917224884,-0.005535082425922155,0.06642098724842072,0.0,0.0,0.0,0.0,0.0,0.0,0.0,0.6371434621980981,0.3385868152536787,0.5,-0.6446634531021118,-0.17142558097839355,0.0667794942855835,0.0,0.0,0.0,0.049815740436315536,-0.14114460349082947,0.03044295310974121,0.0,0.0,0.0,0.0,0.0,0.0,0.0,0.7717720524203733,1.115772068365744,0.5,0.8839156627655029,-0.9796715378761292,0.2301323562860489,0.0,0.0,0.0,-0.11485295742750168,-0.07195606827735901,-0.005535082425922155,0.0,0.0,0.0,0.0,0.0,0.0,0.0,0.5824681946066259,0.8446988697115047,0.5
3.431,TAKEOFF,0.05912656709551811,0.8539422750473022,0.30522575974464417,0.0,0.0,0.0,-0.006918853148818016,0.049815740436315536,0.06088590621948242,0.0,0.0,0.0,0.0,0.0,0.0,0.0,0.6373344734287261,0.3382724621317545,0.5,-0.6446634531021118,-0.17142558097839355,0.0667794942855835,0.0,0.0,0.0,0.049815740436315536,-0.14114460349082947,0.03044295310974121,0.0,0.0,0.0,0.0,0.0,0.0,0.0,0.7718411288718383,1.1158281530640612,0.5,0.8839156627655029,-0.9796715378761292,0.2301323562860489,0.0,0.0,0.0,-0.11485295742750168,-0.07195606827735901,-0.005535082425922155,0.0,0.0,0.0,0.0,0.0,0.0,0.0,0.582469763596682,0.8447034431333819,0.5
3.451,TAKEOFF,0.05912656709551811,0.8539422750473022,0.30522575974464417,0.0,0.0,0.0,-0.006918853148818016,0.049815740436315536,0.06088590621948242,0.0,0.0,0.0,0.0,0.0,0.0,0.0,0.6375245295427647,0.33796011123634295,0.5,-0.6446634531021118,-0.17142558097839355,0.0667794942855835,0.0,0.0,0.0,0.049815740436315536,-0.14114460349082947,0.03044295310974121,0.0,0.0,0.0,0.0,0.0,0.0,0.0,0.7720004200954339,1.1159574203636762,0.5,0.8839156627655029,-0.9796715378761292,0.2301323562860489,0.0,0.0,0.0,-0.11485295742750168,-0.07195606827735901,-0.005535082425922155,0.0,0.0,0.0,0.0,0.0,0.0,0.0,0.5824713232093214,0.8447079891021978,0.5
3.471,TAKEOFF,0.05912656709551811,0.8539422750473022,0.30522575974464417,0.0,0.0,0.0,-0.006918853148818016,0.049815740436315536,0.06088590621948242,0.0,0.0,0.0,0.0,0.0,0.0,0.0,0.6377136339164353,0.3376497492799213,0.5,-0.6446634531021118,-0.17142558097839355,0.0667794942855835,0.0,0.0,0.0,0.049815740436315536,-0.14114460349082947,0.03044295310974121,0.0,0.0,0.0,0.0,0.0,0.0,0.0,0.7721587993626954,1.1160858580787023,0.5,0.8839156627655029,-0.9796715378761292,0.2301323562860489,0.0,0.0,0.0,-0.11485295742750168,-0.07195606827735901,-0.005535082425922155,0.0,0.0,0.0,0.0,0.0,0.0,0.0,0.5824728735003716,0.8447125077828201,0.5
3.49,TAKEOFF,0.05912656709551811,0.8539422750473022,0.30522575974464417,0.0,0.0,0.0,-0.006918853148818016,0.049815740436315536,0.06088590621948242,0.0,0.0,0.0,0.0,0.0,0.0,0.0,0.6379017899350534,0.3373413630678374,0.5,-0.5734582543373108,-0.223195880651474,0.053210459649562836,0.0,0.0,0.0,0.09409639984369278,-0.1549823135137558,0.02214032970368862,0.0,0.0,0.0,0.0,0.0,0.0,0.0,0.7723162716033165,1.1162134718177716,0.5,0.7603709697723389,-0.9793376326560974,0.2829073667526245,0.0,0.0,0.0,-0.05950213596224785,0.012453935109078884,-0.009686394594609737,0.0,0.0,0.0,0.0,0.0,0.0,0.0,0.5824744145253301,0.8447169993391261,0.5
3.51,TAKEOFF,0.05912656709551811,0.8539422750473022,0.30522575974464417,0.0,0.0,0.0,-0.006918853148818016,0.049815740436315536,0.06088590621948242,0.0,0.0,0.0,0.0,0.0,0.0,0.0,0.6379521990115055,0.3372588138686445,0.5,-0.5734582543373108,-0.223195880651474,0.053210459649562836,0.0,0.0,0.0,0.09409639984369278,-0.1549823135137558,0.02214032970368862,0.0,0.0,0.0,0.0,0.0,0.0,0.0,0.7724728417242168,1.1163402671485831,0.5,0.7603709697723389,-0.9793376326560974,0.2829073667526245,0.0,0.0,0.0,-0.05950213596224785,0.012453935109078884,-0.009686394594609737,0.0,0.0,0.0,0.0,0.0,0.0,0.0,0.582429563914649,0.8445862278833846,0.5
3.531,TAKEOFF,0.08211313933134079,0.7627168297767639,0.2999113202095032,0.0,0.0,0.0,-0.004151311703026295,0.03736180439591408,0.058118365705013275,0.0,0.0,0.0,0.0,0.0,0.0,0.0,0.6380023188207444,0.3371767680189571,0.5,-0.5734582543373108,-0.223195880651474,0.053210459649562836,0.0,0.0,0.0,0.09409639984369278,-0.1549823135137558,0.02214032970368862,0.0,0.0,0.0,0.0,0.0,0.0,0.0,0.7726285146095926,1.1164662495982294,0.5,0.7603709697723389,-0.9793376326560974,0.2829073667526245,0.0,0.0,0.0,-0.05950213596224785,0.012453935109078884,-0.009686394594609737,0.0,0.0,0.0,0.0,0.0,0.0,0.0,0.5823850122698414,0.8444562308183823,0.5
3.551,TAKEOFF,0.08211313933134079,0.7627168297767639,0.2999113202095032,0.0,0.0,0.0,-0.004151311703026295,0.03736180439591408,0.058118365705013275,0.0,0.0,0.0,0.0,0.0,0.0,0.0,0.6380521509393261,0.3370952224044039,0.5,-0.5734582543373108,-0.223195880651474,0.053210459649562836,0.0,0.0,0.0,0.09409639984369278,-0.1549823135137558,0.02214032970368862,0.0,0.0,0.0,0.0,0.0,0.0,0.0,0.7725603324319299,1.116411081928919,0.5,0.7603709697723389,-0.9793376326560974,0.2829073667526245,0.0,0.0,0.0,-0.05950213596224785,0.012453935109078884,-0.009686394594609737,0.0,0.0,0.0,0.0,0.0,0.0,0.0,0.5823407574421569,0.8443270036270201,0.5
3.571,TAKEOFF,0.08211313933134079,0.7627168297767639,0.2999113202095032,0.0,0.0,0.0,-0.004151311703026295,0.03736180439591408,0.058118365705013275,0.0,0.0,0.0,0.0,0.0,0.0,0.0,0.6381016969362722,0.3370141739303905,0.5,-0.5874238610267639,-0.2725033462047577,0.08076713979244232,0.0,0.0,0.0,0.024907870218157768,-0.14391213655471802,0.0027675412129610777,0.0,0.0,0.0,0.0,0.0,0.0,0.0,0.7724925673398135,1.1163562353891228,0.5,0.7603709697723389,-0.9793376326560974,0.2829073667526245,0.0,0.0,0.0,-0.05950213596224785,0.012453935109078884,-0.009686394594609737,0.0,0.0,0.0,0.0,0.0,0.0,0.0,0.5822967972999408,0.8441985418176345,0.5
3.59,TAKEOFF,0.08211313933134079,0.7627168297767639,0.2999113202095032,0.0,0.0,0.0,-0.004151311703026295,0.03736180439591408,0.058118365705013275,0.0,0.0,0.0,0.0,0.0,0.0,0.0,0.6381509583730919,0.3369336195219682,0.5,-0.5874238610267639,-0.2725033462047577,0.08076713979244232,0.0,0.0,0.0,0.024907870218157768,-0.14391213655471802,0.0027675412129610777,0.0,0.0,0.0,0.0,0.0,0.0,0.0,0.7724252167365258,1.1163017081713733,0.5,0.7006532549858093,-0.9535196423530579,0.3337237536907196,0.0,0.0,0.0,-0.03736180439591408,0.06642098724842072,-0.0027675412129610777,0.0,0.0,0.0,0.0,0.0,0.0,0.0,0.5822308324101095,0.8440055987189106,0.5
3.61,TAKEOFF,0.08211313933134079,0.7627168297767639,0.2999113202095032,0.0,0.0,0.0,-0.004151311703026295,0.03736180439591408,0.058118365705013275,0.0,0.0,0.0,0.0,0.0,0.0,0.0,0.6381276283026587,0.33697176630064357,0.5,-0.5874238610267639,-0.2725033462047577,0.08076713979244232,0.0,0.0,0.0,0.024907870218157768,-0.14391213655471802,0.0027675412129610777,0.0,0.0,0.0,0.0,0.0,0.0,0.0,0.7723582780420313,1.1162474984776005,0.5,0.7006532549858093,-0.9535196423530579,0.3337237536907196,0.0,0.0,0.0,-0.03736180439591408,0.06642098724842072,-0.0027675412129610777,0.0,0.0,0.0,0.0,0.0,0.0,0.0,0.5821653282954341,0.8438137910732049,0.5
3.63,TAKEOFF,0.13178791105747223,0.8035398125648499,0.32137301564216614,0.0,0.0,0.0,-0.03044295310974121,0.006918853148818016,0.05396705120801926,0.0,0.0,0.0,0.0,0.0,0.0,0.0,0.6381044410300925,0.3370096859216151,0.5,-0.5874238610267639,-0.2725033462047577,0.08076713979244232,0.0,0.0,0.0,0.024907870218157768,-0.14391213655471802,0.0027675412129610777,0.0,0.0,0.0,0.0,0.0,0.0,0.0,0.7722917486928631,1.1161936045190932,0.5,0.7006532549858093,-0.9535196423530579,0.3337237536907196,0.0,0.0,0.0,-0.03736180439591408,0.06642098724842072,-0.0027675412129610777,0.0,0.0,0.0,0.0,0.0,0.0,0.0,0.5821002814211811,0.8436231123551586,0.5
3.651,TAKEOFF,0.13178791105747223,0.8035398125648499,0.32137301564216614,0.0,0.0,0.0,-0.03044295310974121,0.006918853148818016,0.05396705120801926,0.0,0.0,0.0,0.0,0.0,0.0,0.0,0.6380813956650242,0.3370473797270095,0.5,-0.5874238610267639,-0.2725033462047577,0.08076713979244232,0.0,0.0,0.0,0.024907870218157768,-0.14391213655471802,0.0027675412129610777,0.0,0.0,0.0,0.0,0.0,0.0,0.0,0.7723501103030366,1.116240882819033,0.5,0.7006532549858093,-0.9535196423530579,0.3337237536907196,0.0,0.0,0.0,-0.03736180439591408,0.06642098724842072,-0.0027675412129610777,0.0,0.0,0.0,0.0,0.0,0.0,0.0,0.5820356882828991,0.843433556074741,0.5
3.67,TAKEOFF,0.13178791105747223,0.8035398125648499,0.32137301564216614,0.0,0.0,0.0,-0.03044295310974121,0.006918853148818016,0.05396705120801926,0.0,0.0,0.0,0.0,0.0,0.0,0.0,0.6380584913228267,0.337084849051153,0.5,-0.8050304055213928,-0.19364695250988007,0.167965367436409,0.0,0.0,0.0,-0.12730689346790314,-0.11070165038108826,-0.02214032970368862,0.0,0.0,0.0,0.0,0.0,0.0,0.0,0.7724081276082908,1.1162878702086547,0.5,0.7006532549858093,-0.9535196423530579,0.3337237536907196,0.0,0.0,0.0,-0.03736180439591408,0.06642098724842072,-0.0027675412129610777,0.0,0.0,0.0,0.0,0.0,0.0,0.0,0.5819715454061312,0.8432451157770906,0.5
3.691,TAKEOFF,0.13178791105747223,0.8035398125648499,0.32137301564216614,0.0,0.0,0.0,-0.03044295310974121,0.006918853148818016,0.05396705120801926,0.0,0.0,0.0,0.0,0.0,0.0,0.0,0.6380357271245749,0.337122095220616,0.5,-0.8050304055213928,-0.19364695250988007,0.167965367436409,0.0,0.0,0.0,-0.12730689346790314,-0.11070165038108826,-0.02214032970368862,0.0,0.0,0.0,0.0,0.0,0.0,0.0,0.7724658026033993,1.1163345685193244,0.5,0.7277765274047852,-0.9403209686279297,0.351143479347229,0.0,0.0,0.0,0.03874557837843895,0.1190042719244957,-0.0,0.0,0.0,0.0,0.0,0.0,0.0,0.0,0.5820014208116676,0.8433329098731919,0.5
3.71,TAKEOFF,0.13178791105747223,0.8035398125648499,0.32137301564216614,0.0,0.0,0.0,-0.03044295310974121,0.006918853148818016,0.05396705120801926,0.0,0.0,0.0,0.0,0.0,0.0,0.0,0.6380388357665117,0.33711700858517213,0.5,-0.8050304055213928,-0.19364695250988007,0.167965367436409,0.0,0.0,0.0,-0.12730689346790314,-0.11070165038108826,-0.02214032970368862,0.0,0.0,0.0,0.0,0.0,0.0,0.0,0.7725231372720331,1.1163809795704063,0.5,0.7277765274047852,-0.9403209686279297,0.351143479347229,0.0,0.0,0.0,0.03874557837843895,0.1190042719244957,-0.0,0.0,0.0,0.0,0.0,0.0,0.0,0.0,0.5820311304122883,0.8434201726275131,0.5
3.731,TAKEOFF,0.1398564577102661,0.7628811001777649,0.36383628845214844,0.0,0.0,0.0,0.031826723366975784,-0.041513118892908096,0.05119951069355011,0.0,0.0,0.0,0.0,0.0,0.0,0.0,0.6380419258066814,0.3371119525001498,0.5,-0.8050304055213928,-0.19364695250988007,0.167965367436409,0.0,0.0,0.0,-0.12730689346790314,-0.11070165038108826,-0.02214032970368862,0.0,0.0,0.0,0.0,0.0,0.0,0.0,0.7725801335868162,1.1164271051693442,0.5,0.7277765274047852,-0.9403209686279297,0.351143479347229,0.0,0.0,0.0,0.03874557837843895,0.1190042719244957,-0.0,0.0,0.0,0.0,0.0,0.0,0.0,0.0,0.5820606750412416,0.8435069072808253,0.5
3.751,TAKEOFF,0.1398564577102661,0.7628811001777649,0.36383628845214844,0.0,0.0,0.0,0.031826723366975784,-0.041513118892908096,0.05119951069355011,0.0,0.0,0.0,0.0,0.0,0.0,0.0,0.638044997356095,0.3371069267818808,0.5,-0.8050304055213928,-0.19364695250988007,0.167965367436409,0.0,0.0,0.0,-0.12730689346790314,-0.11070165038108826,-0.02214032970368862,0.0,0.0,0.0,0.0,0.0,0.0,0.0,0.7725293839738652,1.1163860354222135,0.5,0.7277765274047852,-0.9403209686279297,0.351143479347229,0.0,0.0,0.0,0.03874557837843895,0.1190042719244957,-0.0,0.0,0.0,0.0,0.0,0.0,0.0,0.0,0.5820900555287218,0.8435931170538609,0.5
3.77,TAKEOFF,0.1398564577102661,0.7628811001777649,0.36383628845214844,0.0,0.0,0.0,0.031826723366975784,-0.041513118892908096,0.05119951069355011,0.0,0.0,0.0,0.0,0.0,0.0,0.0,0.6380480505251048,0.33710193124780335,0.5,-0.8919084668159485,-0.15377691388130188,0.20206902921199799,0.0,0.0,0.0,-0.023524099960923195,0.041513118892908096,-0.027675412595272064,0.0,0.0,0.0,0.0,0.0,0.0,0.0,0.7724789432875412,1.1163452066213488,0.5,0.7277765274047852,-0.9403209686279297,0.351143479347229,0.0,0.0,0.0,0.03874557837843895,0.1190042719244957,-0.0,0.0,0.0,0.0,0.0,0.0,0.0,0.0,0.5821192727018639,0.8436788051474402,0.5
3.79,TAKEOFF,0.1398564577102661,0.7628811001777649,0.36383628845214844,0.0,0.0,0.0,0.031826723366975784,-0.041513118892908096,0.05119951069355011,0.0,0.0,0.0,0.0,0.0,0.0,0.0,0.6380510854234078,0.33709696571645525,0.5,-0.8919084668159485,-0.15377691388130188,0.20206902921199799,0.0,0.0,0.0,-0.023524099960923195,0.041513118892908096,-0.027675412595272064,0.0,0.0,0.0,0.0,0.0,0.0,0.0,0.7724288096218817,1.1163046173870153,0.5,0.829835057258606,-0.9332438111305237,0.34064364433288574,0.0,0.0,0.0,0.02629164233803749,0.03321049362421036,0.004151311703026295,0.0,0.0,0.0,0.0,0.0,0.0,0.0,0.5821859753341675,0.8438742721270396,0.5
3.81,TAKEOFF,0.1398564577102661,0.7628811001777649,0.36383628845214844,0.0,0.0,0.0,0.031826723366975784,-0.041513118892908096,0.05119951069355011,0.0,0.0,0.0,0.0,0.0,0.0,0.0,0.6381667423837379,0.33690781485651045,0.5,-0.8919084668159485,-0.15377691388130188,0.20206902921199799,0.0,0.0,0.0,-0.023524099960923195,0.041513118892908096,-0.027675412595272064,0.0,0.0,0.0,0.0,0.0,0.0,0.0,0.7723789810829755,1.1162642663469593,0.5,0.829835057258606,-0.9332438111305237,0.34064364433288574,0.0,0.0,0.0,0.02629164233803749,0.03321049362421036,0.004151311703026295,0.0,0.0,0.0,0.0,0.0,0.0,0.0,0.5822523444269484,0.8440685435388839,0.5
