timestamp_sec,flight_state,cf1_X,cf1_Y,cf1_Z,cf1_VelX,cf1_VelY,cf1_VelZ,cf1_Roll,cf1_Pitch,cf1_Yaw,cf1_GyroX,cf1_GyroY,cf1_GyroZ,cf1_Motor1,cf1_Motor2,cf1_Motor3,cf1_Motor4,cf1_targ_x,cf1_targ_y,cf1_targ_z,cf2_X,cf2_Y,cf2_Z,cf2_VelX,cf2_VelY,cf2_VelZ,cf2_Roll,cf2_Pitch,cf2_Yaw,cf2_GyroX,cf2_GyroY,cf2_GyroZ,cf2_Motor1,cf2_Motor2,cf2_Motor3,cf2_Motor4,cf2_targ_x,cf2_targ_y,cf2_targ_z,cf3_X,cf3_Y,cf3_Z,cf3_VelX,cf3_VelY,cf3_VelZ,cf3_Roll,cf3_Pitch,cf3_Yaw,cf3_GyroX,cf3_GyroY,cf3_GyroZ,cf3_Motor1,cf3_Motor2,cf3_Motor3,cf3_Motor4,cf3_targ_x,cf3_targ_y,cf3_targ_z
0.015,TAKEOFF,0.259041428565979,0.2612419128417969,0.00037516807788051665,0.0,0.0,0.0,0.0,-0.004151311703026295,-0.03874557837843895,0.0,0.0,0.0,0.0,0.0,0.0,0.0,0.599959841573143,0.006941793682404625,0.5,0.6457628607749939,0.1001497283577919,-0.0006905649788677692,0.0,0.0,0.0,0.0027675412129610777,0.0027675412129610777,-0.015221476554870605,0.0,0.0,0.0,0.0,0.0,0.0,0.0,0.5997559615589184,0.01711100740860143,0.5,0.6361543536186218,0.6200815439224243,0.00043414614629000425,0.0,0.0,0.0,-0.0027675412129610777,-0.009686394594609737,0.02629164233803749,0.0,0.0,0.0,0.0,0.0,0.0,0.0,0.4927068372582623,-0.34240323088277097,0.5
0.035,TAKEOFF,0.259041428565979,0.2612419128417969,0.00037516807788051665,0.0,0.0,0.0,0.0,-0.004151311703026295,-0.03874557837843895,0.0,0.0,0.0,0.0,0.0,0.0,0.0,0.5999598429117653,0.006941677988056037,0.5,0.6457628607749939,0.1001497283577919,-0.0006905649788677692,0.0,0.0,0.0,0.0027675412129610777,0.0027675412129610777,-0.015221476554870605,0.0,0.0,0.0,0.0,0.0,0.0,0.0,0.5997559575903709,0.017111146509136223,0.5,0.6361543536186218,0.6200815439224243,0.00043414614629000425,0.0,0.0,0.0,-0.0027675412129610777,-0.009686394594609737,0.02629164233803749,0.0,0.0,0.0,0.0,0.0,0.0,0.0,0.4927070818822904,-0.34240287887667936,0.5
0.055,TAKEOFF,0.259041428565979,0.2612419128417969,0.00037516807788051665,0.0,0.0,0.0,0.0,-0.004151311703026295,-0.03874557837843895,0.0,0.0,0.0,0.0,0.0,0.0,0.0,0.5999598442423337,0.006941562987873286,0.5,0.6457628607749939,0.1001497283577919,-0.0006905649788677692,0.0,0.0,0.0,0.0027675412129610777,0.0027675412129610777,-0.015221476554870605,0.0,0.0,0.0,0.0,0.0,0.0,0.0,0.5997559536456029,0.01711128477506689,0.5,0.6361543536186218,0.6200815439224243,0.00043414614629000425,0.0,0.0,0.0,-0.0027675412129610777,-0.009686394594609737,0.02629164233803749,0.0,0.0,0.0,0.0,0.0,0.0,0.0,0.4927073250383251,-0.34240252898245105,0.5
0.075,TAKEOFF,0.2585299015045166,0.26063352823257446,0.000845596194267273,0.0,0.0,0.0,0.0,-0.004151311703026295,-0.03874557837843895,0.0,0.0,0.0,0.0,0.0,0.0,0.0,0.5999598455648969,0.006941448677691378,0.5,0.6457628607749939,0.1001497283577919,-0.0006905649788677692,0.0,0.0,0.0,0.0027675412129610777,0.0027675412129610777,-0.015221476554870605,0.0,0.0,0.0,0.0,0.0,0.0,0.0,0.5997559679414505,0.017110783693738026,0.5,0.6361543536186218,0.6200815439224243,0.00043414614629000425,0.0,0.0,0.0,-0.0027675412129610777,-0.009686394594609737,0.02629164233803749,0.0,0.0,0.0,0.0,0.0,0.0,0.0,0.49270756673517735,-0.342402181187417,0.5
0.095,TAKEOFF,0.2585299015045166,0.26063352823257446,0.000845596194267273,0.0,0.0,0.0,0.0,-0.004151311703026295,-0.03874557837843895,0.0,0.0,0.0,0.0,0.0,0.0,0.0,0.5999598468795031,0.006941335053370311,0.5,0.6457628607749939,0.1001497283577919,-0.0006905649788677692,0.0,0.0,0.0,0.0027675412129610777,0.0027675412129610777,-0.015221476554870605,0.0,0.0,0.0,0.0,0.0,0.0,0.0,0.5997559821511079,0.017110285618885297,0.5,0.6361543536186218,0.6200815439224243,0.00043414614629000425,0.0,0.0,0.0,-0.0027675412129610777,-0.009686394594609737,0.02629164233803749,0.0,0.0,0.0,0.0,0.0,0.0,0.0,0.4927078069816052,-0.34240183547898406,0.5
0.115,TAKEOFF,0.2585299015045166,0.26063352823257446,0.000845596194267273,0.0,0.0,0.0,0.0,-0.004151311703026295,-0.03874557837843895,0.0,0.0,0.0,0.0,0.0,0.0,0.0,0.5999598449695256,0.006941500136341349,0.5,0.6453118324279785,0.10024365782737732,-0.000569454743526876,0.0,0.0,0.0,0.0027675412129610777,0.0027675412129610777,-0.015221476554870605,0.0,0.0,0.0,0.0,0.0,0.0,0.0,0.5997559962750977,0.017109790532469995,0.5,0.6364786028862,0.620493471622467,0.0006557952146977186,0.0,0.0,0.0,-0.0027675412129610777,-0.009686394594609737,0.02629164233803749,0.0,0.0,0.0,0.0,0.0,0.0,0.0,0.4927085552339145,-0.34240075875983195,0.5
0.135,TAKEOFF,0.2585299015045166,0.26063352823257446,0.000845596194267273,0.0,0.0,0.0,0.0,-0.004151311703026295,-0.03874557837843895,0.0,0.0,0.0,0.0,0.0,0.0,0.0,0.5999598430709628,0.006941664228814042,0.5,0.6453118324279785,0.10024365782737732,-0.000569454743526876,0.0,0.0,0.0,0.0027675412129610777,0.0027675412129610777,-0.015221476554870605,0.0,0.0,0.0,0.0,0.0,0.0,0.0,0.5997560103139384,0.017109298416561624,0.5,0.6364786028862,0.620493471622467,0.0006557952146977186,0.0,0.0,0.0,-0.0027675412129610777,-0.009686394594609737,0.02629164233803749,0.0,0.0,0.0,0.0,0.0,0.0,0.0,0.49270929899437804,-0.3423996884993743,0.5
0.155,TAKEOFF,0.2585299015045166,0.26063352823257446,0.000845596194267273,0.0,0.0,0.0,0.0,-0.004151311703026295,-0.03874557837843895,0.0,0.0,0.0,0.0,0.0,0.0,0.0,0.599959841183747,0.006941827336731384,0.5,0.6453118324279785,0.10024365782737732,-0.000569454743526876,0.0,0.0,0.0,0.0027675412129610777,0.0027675412129610777,-0.015221476554870605,0.0,0.0,0.0,0.0,0.0,0.0,0.0,0.5997560242681459,0.01710880925333729,0.5,0.6364786028862,0.620493471622467,0.0006557952146977186,0.0,0.0,0.0,-0.0027675412129610777,-0.009686394594609737,0.02629164233803749,0.0,0.0,0.0,0.0,0.0,0.0,0.0,0.49271003828997495,-0.34239862465887827,0.5
0.175,TAKEOFF,0.25907135009765625,0.2616763114929199,0.0010177516378462315,0.0,0.0,0.0,0.0,-0.0027675412129610777,-0.03874557837843895,0.0,0.0,0.0,0.0,0.0,0.0,0.0,0.5999598393078106,0.006941989466000712,0.5,0.6453118324279785,0.10024365782737732,-0.000569454743526876,0.0,0.0,0.0,0.0027675412129610777,0.0027675412129610777,-0.015221476554870605,0.0,0.0,0.0,0.0,0.0,0.0,0.0,0.599755940572608,0.017111742981543963,0.5,0.6364786028862,0.620493471622467,0.0006557952146977186,0.0,0.0,0.0,-0.0027675412129610777,-0.009686394594609737,0.02629164233803749,0.0,0.0,0.0,0.0,0.0,0.0,0.0,0.4927107731475219,-0.3423975671998433,0.5
0.195,TAKEOFF,0.25907135009765625,0.2616763114929199,0.0010177516378462315,0.0,0.0,0.0,0.0,-0.0027675412129610777,-0.03874557837843895,0.0,0.0,0.0,0.0,0.0,0.0,0.0,0.5999598374430863,0.006942150622493922,0.5,0.6453118324279785,0.10024365782737732,-0.000569454743526876,0.0,0.0,0.0,0.0027675412129610777,0.0027675412129610777,-0.015221476554870605,0.0,0.0,0.0,0.0,0.0,0.0,0.0,0.5997558573650215,0.017114659106975644,0.5,0.6364786028862,0.620493471622467,0.0006557952146977186,0.0,0.0,0.0,-0.0027675412129610777,-0.009686394594609737,0.02629164233803749,0.0,0.0,0.0,0.0,0.0,0.0,0.0,0.4927115035936744,-0.3423965160839996,0.5
0.215,TAKEOFF,0.25907135009765625,0.2616763114929199,0.0010177516378462315,0.0,0.0,0.0,0.0,-0.0027675412129610777,-0.03874557837843895,0.0,0.0,0.0,0.0,0.0,0.0,0.0,0.5999598667234338,0.006939619672539273,0.5,0.6452687978744507,0.09994404762983322,-0.0007533269235864282,0.0,0.0,0.0,0.0027675412129610777,0.0027675412129610777,-0.015221476554870605,0.0,0.0,0.0,0.0,0.0,0.0,0.0,0.5997557746426292,0.017117557735253763,0.5,0.6371790766716003,0.6202479600906372,0.0011628842912614346,0.0,0.0,0.0,-0.0027675412129610777,-0.009686394594609737,0.02629164233803749,0.0,0.0,0.0,0.0,0.0,0.0,0.0,0.4927113189651329,-0.3423967817658907,0.5
0.235,TAKEOFF,0.25907135009765625,0.2616763114929199,0.0010177516378462315,0.0,0.0,0.0,0.0,-0.0027675412129610777,-0.03874557837843895,0.0,0.0,0.0,0.0,0.0,0.0,0.0,0.5999598958175182,0.0069371039081619615,0.5,0.6452687978744507,0.09994404762983322,-0.0007533269235864282,0.0,0.0,0.0,0.0027675412129610777,0.0027675412129610777,-0.015221476554870605,0.0,0.0,0.0,0.0,0.0,0.0,0.0,0.599755692402688,0.01712043897136597,0.5,0.6371790766716003,0.6202479600906372,0.0011628842912614346,0.0,0.0,0.0,-0.0027675412129610777,-0.009686394594609737,0.02629164233803749,0.0,0.0,0.0,0.0,0.0,0.0,0.0,0.4927111354442208,-0.3423970458535919,0.5
0.255,TAKEOFF,0.25907135009765625,0.2616763114929199,0.0010177516378462315,0.0,0.0,0.0,0.0,-0.0027675412129610777,-0.03874557837843895,0.0,0.0,0.0,0.0,0.0,0.0,0.0,0.5999599247265838,0.006934603238250034,0.5,0.6452687978744507,0.09994404762983322,-0.0007533269235864282,0.0,0.0,0.0,0.0027675412129610777,0.0027675412129610777,-0.015221476554870605,0.0,0.0,0.0,0.0,0.0,0.0,0.0,0.5997556106424693,0.01712330291966993,0.5,0.6371790766716003,0.6202479600906372,0.0011628842912614346,0.0,0.0,0.0,-0.0027675412129610777,-0.009686394594609737,0.02629164233803749,0.0,0.0,0.0,0.0,0.0,0.0,0.0,0.4927109530242938,-0.3423973083566693,0.5
0.275,TAKEOFF,0.2590154707431793,0.261282354593277,0.0004569317970890552,0.0,0.0,0.0,0.0,-0.0027675412129610777,-0.03874557837843895,0.0,0.0,0.0,0.0,0.0,0.0,0.0,0.5999599534518655,0.006932117572238189,0.5,0.6452687978744507,0.09994404762983322,-0.0007533269235864282,0.0,0.0,0.0,0.0027675412129610777,0.0027675412129610777,-0.015221476554870605,0.0,0.0,0.0,0.0,0.0,0.0,0.0,0.5997555293592588,0.01712614968389713,0.5,0.6371790766716003,0.6202479600906372,0.0011628842912614346,0.0,0.0,0.0,-0.0027675412129610777,-0.009686394594609737,0.02629164233803749,0.0,0.0,0.0,0.0,0.0,0.0,0.0,0.49271077169874783,-0.342397569284632,0.5
0.296,TAKEOFF,0.2590154707431793,0.261282354593277,0.0004569317970890552,0.0,0.0,0.0,0.0,-0.0027675412129610777,-0.03874557837843895,0.0,0.0,0.0,0.0,0.0,0.0,0.0,0.5999599819945899,0.006929646820104493,0.5,0.6452687978744507,0.09994404762983322,-0.0007533269235864282,0.0,0.0,0.0,0.0027675412129610777,0.0027675412129610777,-0.015221476554870605,0.0,0.0,0.0,0.0,0.0,0.0,0.0,0.5997555148800153,0.01712665673760423,0.5,0.6371790766716003,0.6202479600906372,0.0011628842912614346,0.0,0.0,0.0,-0.0027675412129610777,-0.009686394594609737,0.02629164233803749,0.0,0.0,0.0,0.0,0.0,0.0,0.0,0.49271059146101814,-0.3423978286469317,0.5
0.315,TAKEOFF,0.2590154707431793,0.261282354593277,0.0004569317970890552,0.0,0.0,0.0,0.0,-0.0027675412129610777,-0.03874557837843895,0.0,0.0,0.0,0.0,0.0,0.0,0.0,0.5999600103559742,0.006927190892367132,0.5,0.6457908153533936,0.10009660571813583,-0.0006382456631399691,0.0,0.0,0.0,0.0027675412129610777,0.0027675412129610777,-0.015221476554870605,0.0,0.0,0.0,0.0,0.0,0.0,0.0,0.5997555004872225,0.017127160748976956,0.5,0.6368893980979919,0.6197008490562439,8.47018527565524e-05,0.0,0.0,0.0,-0.0027675412129610777,-0.009686394594609737,0.02629164233803749,0.0,0.0,0.0,0.0,0.0,0.0,0.0,0.4927104123045796,-0.34239808645296355,0.5
0.335,TAKEOFF,0.2590154707431793,0.261282354593277,0.0004569317970890552,0.0,0.0,0.0,0.0,-0.0027675412129610777,-0.03874557837843895,0.0,0.0,0.0,0.0,0.0,0.0,0.0,0.5999600474195136,0.006923980096372397,0.5,0.6457908153533936,0.10009660571813583,-0.0006382456631399691,0.0,0.0,0.0,0.0027675412129610777,0.0027675412129610777,-0.015221476554870605,0.0,0.0,0.0,0.0,0.0,0.0,0.0,0.5997554861803666,0.017127661736269457,0.5,0.6368893980979919,0.6197008490562439,8.47018527565524e-05,0.0,0.0,0.0,-0.0027675412129610777,-0.009686394594609737,0.02629164233803749,0.0,0.0,0.0,0.0,0.0,0.0,0.0,0.4927104569802291,-0.34239802216475174,0.5
0.355,TAKEOFF,0.2590154707431793,0.261282354593277,0.0004569317970890552,0.0,0.0,0.0,0.0,-0.0027675412129610777,-0.03874557837843895,0.0,0.0,0.0,0.0,0.0,0.0,0.0,0.5999600842436429,0.006920788564957104,0.5,0.6457908153533936,0.10009660571813583,-0.0006382456631399691,0.0,0.0,0.0,0.0027675412129610777,0.0027675412129610777,-0.015221476554870605,0.0,0.0,0.0,0.0,0.0,0.0,0.0,0.5997554719589372,0.01712815971762636,0.5,0.6368893980979919,0.6197008490562439,8.47018527565524e-05,0.0,0.0,0.0,-0.0027675412129610777,-0.009686394594609737,0.02629164233803749,0.0,0.0,0.0,0.0,0.0,0.0,0.0,0.4927105013878162,-0.34239795826226344,0.5
0.375,TAKEOFF,0.2587716281414032,0.26068204641342163,-2.5095268938457593e-06,0.0,0.0,0.0,0.0,-0.0027675412129610777,-0.03874557837843895,0.0,0.0,0.0,0.0,0.0,0.0,0.0,0.5999601208300024,0.006917616182536219,0.5,0.6457908153533936,0.10009660571813583,-0.0006382456631399691,0.0,0.0,0.0,0.0027675412129610777,0.0027675412129610777,-0.015221476554870605,0.0,0.0,0.0,0.0,0.0,0.0,0.0,0.5997554578224266,0.01712865471108342,0.5,0.6368893980979919,0.6197008490562439,8.47018527565524e-05,0.0,0.0,0.0,-0.0027675412129610777,-0.009686394594609737,0.02629164233803749,0.0,0.0,0.0,0.0,0.0,0.0,0.0,0.49271054552894966,-0.3423978947431844,0.5
0.395,TAKEOFF,0.2587716281414032,0.26068204641342163,-2.5095268938457593e-06,0.0,0.0,0.0,0.0,-0.0027675412129610777,-0.03874557837843895,0.0,0.0,0.0,0.0,0.0,0.0,0.0,0.5999601571802199,0.0069144628342181855,0.5,0.6457908153533936,0.10009660571813583,-0.0006382456631399691,0.0,0.0,0.0,0.0027675412129610777,0.0027675412129610777,-0.015221476554870605,0.0,0.0,0.0,0.0,0.0,0.0,0.0,0.5997555135639276,0.017126702825396363,0.5,0.6368893980979919,0.6197008490562439,8.47018527565524e-05,0.0,0.0,0.0,-0.0027675412129610777,-0.009686394594609737,0.02629164233803749,0.0,0.0,0.0,0.0,0.0,0.0,0.0,0.4927105894052282,-0.34239783160521403,0.5
0.415,TAKEOFF,0.2587716281414032,0.26068204641342163,-2.5095268938457593e-06,0.0,0.0,0.0,0.0,-0.0027675412129610777,-0.03874557837843895,0.0,0.0,0.0,0.0,0.0,0.0,0.0,0.5999601932959112,0.006911328405800765,0.5,0.6461482048034668,0.09991208463907242,-0.0011455314233899117,0.0,0.0,0.0,0.0027675412129610777,0.0027675412129610777,-0.015221476554870605,0.0,0.0,0.0,0.0,0.0,0.0,0.0,0.5997555689646843,0.017124762650843662,0.5,0.6364172697067261,0.620337188243866,0.00036858528619632125,0.0,0.0,0.0,-0.0027675412129610777,-0.009686394594609737,0.02629164233803749,0.0,0.0,0.0,0.0,0.0,0.0,0.0,0.4927106330182411,-0.3423977688460661,0.5
0.435,TAKEOFF,0.2587716281414032,0.26068204641342163,-2.5095268938457593e-06,0.0,0.0,0.0,0.0,-0.0027675412129610777,-0.03874557837843895,0.0,0.0,0.0,0.0,0.0,0.0,0.0,0.5999601925439886,0.006911393678568078,0.5,0.6461482048034668,0.09991208463907242,-0.0011455314233899117,0.0,0.0,0.0,0.0027675412129610777,0.0027675412129610777,-0.015221476554870605,0.0,0.0,0.0,0.0,0.0,0.0,0.0,0.5997556240268166,0.017122834117160677,0.5,0.6364172697067261,0.620337188243866,0.00036858528619632125,0.0,0.0,0.0,-0.0027675412129610777,-0.009686394594609737,0.02629164233803749,0.0,0.0,0.0,0.0,0.0,0.0,0.0,0.4927099314254321,-0.34239877843641026,0.5
0.455,TAKEOFF,0.2587716281414032,0.26068204641342163,-2.5095268938457593e-06,0.0,0.0,0.0,0.0,-0.0027675412129610777,-0.03874557837843895,0.0,0.0,0.0,0.0,0.0,0.0,0.0,0.5999601917965705,0.0069114585596987054,0.5,0.6461482048034668,0.09991208463907242,-0.0011455314233899117,0.0,0.0,0.0,0.0027675412129610777,0.0027675412129610777,-0.015221476554870605,0.0,0.0,0.0,0.0,0.0,0.0,0.0,0.5997556787524304,0.017120917154504336,0.5,0.6364172697067261,0.620337188243866,0.00036858528619632125,0.0,0.0,0.0,-0.0027675412129610777,-0.009686394594609737,0.02629164233803749,0.0,0.0,0.0,0.0,0.0,0.0,0.0,0.4927092340401299,-0.34239978196778764,0.5
0.479,TAKEOFF,0.2583312392234802,0.2603669762611389,0.00010443679639138281,0.0,0.0,0.0,0.0,-0.004151311703026295,-0.03874557837843895,0.0,0.0,0.0,0.0,0.0,0.0,0.0,0.5999601910536299,0.006911523051542468,0.5,0.6461482048034668,0.09991208463907242,-0.0011455314233899117,0.0,0.0,0.0,0.0027675412129610777,0.0027675412129610777,-0.015221476554870605,0.0,0.0,0.0,0.0,0.0,0.0,0.0,0.5997557077771709,0.017119900370758903,0.5,0.6364172697067261,0.620337188243866,0.00036858528619632125,0.0,0.0,0.0,-0.0027675412129610777,-0.009686394594609737,0.02629164233803749,0.0,0.0,0.0,0.0,0.0,0.0,0.0,0.4927085408371138,-0.34240077947656916,0.5
0.495,TAKEOFF,0.2583312392234802,0.2603669762611389,0.00010443679639138281,0.0,0.0,0.0,0.0,-0.004151311703026295,-0.03874557837843895,0.0,0.0,0.0,0.0,0.0,0.0,0.0,0.5999601903151399,0.006911587156435091,0.5,0.6461482048034668,0.09991208463907242,-0.0011455314233899117,0.0,0.0,0.0,0.0027675412129610777,0.0027675412129610777,-0.015221476554870605,0.0,0.0,0.0,0.0,0.0,0.0,0.0,0.5997557366260546,0.01711888968766718,0.5,0.6364172697067261,0.620337188243866,0.00036858528619632125,0.0,0.0,0.0,-0.0027675412129610777,-0.009686394594609737,0.02629164233803749,0.0,0.0,0.0,0.0,0.0,0.0,0.0,0.49270785179131454,-0.3424017709989071,0.5
0.517,TAKEOFF,0.2583312392234802,0.2603669762611389,0.00010443679639138281,0.0,0.0,0.0,0.0,-0.004151311703026295,-0.03874557837843895,0.0,0.0,0.0,0.0,0.0,0.0,0.0,0.5999601895810743,0.00691165087669828,0.5,0.6461776494979858,0.09998160600662231,-0.0013391805114224553,0.0,0.0,0.0,0.0027675412129610777,0.0027675412129610777,-0.015221476554870605,0.0,0.0,0.0,0.0,0.0,0.0,0.0,0.5997557653001572,0.017117885068625827,0.5,0.6367539763450623,0.6197148561477661,5.861755198566243e-05,0.0,0.0,0.0,-0.0027675412129610777,-0.009686394594609737,0.02629164233803749,0.0,0.0,0.0,0.0,0.0,0.0,0.0,0.4927071668778126,-0.34240275657073693,0.5
0.535,TAKEOFF,0.2583312392234802,0.2603669762611389,0.00010443679639138281,0.0,0.0,0.0,0.0,-0.004151311703026295,-0.03874557837843895,0.0,0.0,0.0,0.0,0.0,0.0,0.0,0.5999602206136496,0.00690895659422243,0.5,0.6461776494979858,0.09998160600662231,-0.0013391805114224553,0.0,0.0,0.0,0.0027675412129610777,0.0027675412129610777,-0.015221476554870605,0.0,0.0,0.0,0.0,0.0,0.0,0.0,0.5997557938005476,0.017116886477251125,0.5,0.6367539763450623,0.6197148561477661,5.861755198566243e-05,0.0,0.0,0.0,-0.0027675412129610777,-0.009686394594609737,0.02629164233803749,0.0,0.0,0.0,0.0,0.0,0.0,0.0,0.4927066878024084,-0.3424034459446634,0.5
0.555,TAKEOFF,0.2583312392234802,0.2603669762611389,0.00010443679639138281,0.0,0.0,0.0,0.0,-0.004151311703026295,-0.03874557837843895,0.0,0.0,0.0,0.0,0.0,0.0,0.0,0.5999602514480388,0.006906278477303355,0.5,0.6461776494979858,0.09998160600662231,-0.0013391805114224553,0.0,0.0,0.0,0.0027675412129610777,0.0027675412129610777,-0.015221476554870605,0.0,0.0,0.0,0.0,0.0,0.0,0.0,0.5997558221282877,0.017115893877377643,0.5,0.6367539763450623,0.6197148561477661,5.861755198566243e-05,0.0,0.0,0.0,-0.0027675412129610777,-0.009686394594609737,0.02629164233803749,0.0,0.0,0.0,0.0,0.0,0.0,0.0,0.49270621160050077,-0.342404131181682,0.5
0.575,TAKEOFF,0.2582762539386749,0.2601645588874817,0.0001628520985832438,0.0,0.0,0.0,0.0,-0.004151311703026295,-0.03736180439591408,0.0,0.0,0.0,0.0,0.0,0.0,0.0,0.5999602820855744,0.006903616428949416,0.5,0.6461776494979858,0.09998160600662231,-0.0013391805114224553,0.0,0.0,0.0,0.0027675412129610777,0.0027675412129610777,-0.015221476554870605,0.0,0.0,0.0,0.0,0.0,0.0,0.0,0.5997558502844335,0.017114907233056947,0.5,0.6367539763450623,0.6197148561477661,5.861755198566243e-05,0.0,0.0,0.0,-0.0027675412129610777,-0.009686394594609737,0.02629164233803749,0.0,0.0,0.0,0.0,0.0,0.0,0.0,0.49270573825486014,-0.34240481230662223,0.5
0.595,TAKEOFF,0.2582762539386749,0.2601645588874817,0.0001628520985832438,0.0,0.0,0.0,0.0,-0.004151311703026295,-0.03736180439591408,0.0,0.0,0.0,0.0,0.0,0.0,0.0,0.5999603125275791,0.0069009703527509085,0.5,0.6461776494979858,0.09998160600662231,-0.0013391805114224553,0.0,0.0,0.0,0.0027675412129610777,0.0027675412129610777,-0.015221476554870605,0.0,0.0,0.0,0.0,0.0,0.0,0.0,0.5997559072694019,0.01711291019834363,0.5,0.6367539763450623,0.6197148561477661,5.861755198566243e-05,0.0,0.0,0.0,-0.0027675412129610777,-0.009686394594609737,0.02629164233803749,0.0,0.0,0.0,0.0,0.0,0.0,0.0,0.49270526774836026,-0.34240548934416426,0.5
0.615,TAKEOFF,0.2582762539386749,0.2601645588874817,0.0001628520985832438,0.0,0.0,0.0,0.0,-0.004151311703026295,-0.03736180439591408,0.0,0.0,0.0,0.0,0.0,0.0,0.0,0.5999602541089604,0.006906047314612365,0.5,0.6455093026161194,0.10034724324941635,-0.0005813754396513104,0.0,0.0,0.0,0.0027675412129610777,0.0027675412129610777,-0.013837706297636032,0.0,0.0,0.0,0.0,0.0,0.0,0.0,0.5997559639058706,0.017110925145650567,0.5,0.6350546479225159,0.6207140684127808,0.0020793701987713575,0.0,0.0,0.0,-0.0027675412129610777,-0.01107016485184431,0.02629164233803749,0.0,0.0,0.0,0.0,0.0,0.0,0.0,0.4927062578194854,-0.34240406467435336,0.5
0.635,TAKEOFF,0.2582762539386749,0.2601645588874817,0.0001628520985832438,0.0,0.0,0.0,0.0,-0.004151311703026295,-0.03736180439591408,0.0,0.0,0.0,0.0,0.0,0.0,0.0,0.5999601959982771,0.006911093814212566,0.5,0.6455093026161194,0.10034724324941635,-0.0005813754396513104,0.0,0.0,0.0,0.0027675412129610777,0.0027675412129610777,-0.013837706297636032,0.0,0.0,0.0,0.0,0.0,0.0,0.0,0.5997560201960094,0.0171089520030879,0.5,0.6350546479225159,0.6207140684127808,0.0020793701987713575,0.0,0.0,0.0,-0.0027675412129610777,-0.01107016485184431,0.02629164233803749,0.0,0.0,0.0,0.0,0.0,0.0,0.0,0.4927072419461013,-0.3424026485497242,0.5
0.656,TAKEOFF,0.2582762539386749,0.2601645588874817,0.0001628520985832438,0.0,0.0,0.0,0.0,-0.004151311703026295,-0.03736180439591408,0.0,0.0,0.0,0.0,0.0,0.0,0.0,0.5999601381941913,0.0069161100343305875,0.5,0.6455093026161194,0.10034724324941635,-0.0005813754396513104,0.0,0.0,0.0,0.0027675412129610777,0.0027675412129610777,-0.013837706297636032,0.0,0.0,0.0,0.0,0.0,0.0,0.0,0.5997560761419741,0.017106990699197095,0.5,0.6350546479225159,0.6207140684127808,0.0020793701987713575,0.0,0.0,0.0,-0.0027675412129610777,-0.01107016485184431,0.02629164233803749,0.0,0.0,0.0,0.0,0.0,0.0,0.0,0.4927082201639239,-0.34240124091903973,0.5
0.675,TAKEOFF,0.2592269778251648,0.261453777551651,-3.8344369386322796e-05,0.0,0.0,0.0,0.0,-0.0027675412129610777,-0.03736180439591408,0.0,0.0,0.0,0.0,0.0,0.0,0.0,0.5999600806953662,0.006921096156648773,0.5,0.6455093026161194,0.10034724324941635,-0.0005813754396513104,0.0,0.0,0.0,0.0027675412129610777,0.0027675412129610777,-0.013837706297636032,0.0,0.0,0.0,0.0,0.0,0.0,0.0,0.5997560666307206,0.01710732415214816,0.5,0.6350546479225159,0.6207140684127808,0.0020793701987713575,0.0,0.0,0.0,-0.0027675412129610777,-0.01107016485184431,0.02629164233803749,0.0,0.0,0.0,0.0,0.0,0.0,0.0,0.4927091925084542,-0.34239984173136967,0.5
0.695,TAKEOFF,0.2592269778251648,0.261453777551651,-3.8344369386322796e-05,0.0,0.0,0.0,0.0,-0.0027675412129610777,-0.03736180439591408,0.0,0.0,0.0,0.0,0.0,0.0,0.0,0.5999600235004681,0.006926052361759313,0.5,0.6455093026161194,0.10034724324941635,-0.0005813754396513104,0.0,0.0,0.0,0.0027675412129610777,0.0027675412129610777,-0.013837706297636032,0.0,0.0,0.0,0.0,0.0,0.0,0.0,0.5997560571763507,0.017107655604376274,0.5,0.6350546479225159,0.6207140684127808,0.0020793701987713575,0.0,0.0,0.0,-0.0027675412129610777,-0.01107016485184431,0.02629164233803749,0.0,0.0,0.0,0.0,0.0,0.0,0.0,0.4927101590149795,-0.3423984509360893,0.5
0.715,TAKEOFF,0.2592269778251648,0.261453777551651,-3.8344369386322796e-05,0.0,0.0,0.0,0.0,-0.0027675412129610777,-0.03736180439591408,0.0,0.0,0.0,0.0,0.0,0.0,0.0,0.5999599666081642,0.006930978829170785,0.5,0.646003007888794,0.10036744922399521,-0.0004883445799350739,0.0,0.0,0.0,0.0013837706064805388,0.0027675412129610777,-0.01660524681210518,0.0,0.0,0.0,0.0,0.0,0.0,0.0,0.5997560477785255,0.017107985067885845,0.5,0.6367308497428894,0.6200459003448486,0.0008138003177009523,0.0,0.0,0.0,-0.0027675412129610777,-0.009686394594609737,0.024907870218157768,0.0,0.0,0.0,0.0,0.0,0.0,0.0,0.4927111197185751,-0.3423970684828769,0.5
0.735,TAKEOFF,0.2592269778251648,0.261453777551651,-3.8344369386322796e-05,0.0,0.0,0.0,0.0,-0.0027675412129610777,-0.03736180439591408,0.0,0.0,0.0,0.0,0.0,0.0,0.0,0.5999599872153364,0.006929194799783181,0.5,0.646003007888794,0.10036744922399521,-0.0004883445799350739,0.0,0.0,0.0,0.0013837706064805388,0.0027675412129610777,-0.01660524681210518,0.0,0.0,0.0,0.0,0.0,0.0,0.0,0.599756038436908,0.01710831255460924,0.5,0.6367308497428894,0.6200459003448486,0.0008138003177009523,0.0,0.0,0.0,-0.0027675412129610777,-0.009686394594609737,0.024907870218157768,0.0,0.0,0.0,0.0,0.0,0.0,0.0,0.49271189908145896,-0.34239594697300696,0.5
0.755,TAKEOFF,0.2592269778251648,0.261453777551651,-3.8344369386322796e-05,0.0,0.0,0.0,0.0,-0.0027675412129610777,-0.03736180439591408,0.0,0.0,0.0,0.0,0.0,0.0,0.0,0.5999600076936082,0.0069274214745111825,0.5,0.646003007888794,0.10036744922399521,-0.0004883445799350739,0.0,0.0,0.0,0.0013837706064805388,0.0027675412129610777,-0.01660524681210518,0.0,0.0,0.0,0.0,0.0,0.0,0.0,0.5997560291511629,0.01710863807640724,0.5,0.6367308497428894,0.6200459003448486,0.0008138003177009523,0.0,0.0,0.0,-0.0027675412129610777,-0.009686394594609737,0.024907870218157768,0.0,0.0,0.0,0.0,0.0,0.0,0.0,0.49271267376563554,-0.34239483219043826,0.5
0.775,TAKEOFF,0.25883543491363525,0.26198244094848633,0.0005481301341205835,0.0,0.0,0.0,-0.0,-0.0027675412129610777,-0.040129344910383224,0.0,0.0,0.0,0.0,0.0,0.0,0.0,0.5999600280438161,0.00692565878913084,0.5,0.646003007888794,0.10036744922399521,-0.0004883445799350739,0.0,0.0,0.0,0.0013837706064805388,0.0027675412129610777,-0.01660524681210518,0.0,0.0,0.0,0.0,0.0,0.0,0.0,0.5997558386340934,0.017115315489796952,0.5,0.6367308497428894,0.6200459003448486,0.0008138003177009523,0.0,0.0,0.0,-0.0027675412129610777,-0.009686394594609737,0.024907870218157768,0.0,0.0,0.0,0.0,0.0,0.0,0.0,0.49271344379920756,-0.3423937240948279,0.5
0.795,TAKEOFF,0.25883543491363525,0.26198244094848633,0.0005481301341205835,0.0,0.0,0.0,-0.0,-0.0027675412129610777,-0.040129344910383224,0.0,0.0,0.0,0.0,0.0,0.0,0.0,0.5999600482667903,0.006923906679803534,0.5,0.646003007888794,0.10036744922399521,-0.0004883445799350739,0.0,0.0,0.0,0.0013837706064805388,0.0027675412129610777,-0.01660524681210518,0.0,0.0,0.0,0.0,0.0,0.0,0.0,0.5997556491864509,0.017121952836603838,0.5,0.6367308497428894,0.6200459003448486,0.0008138003177009523,0.0,0.0,0.0,-0.0027675412129610777,-0.009686394594609737,0.024907870218157768,0.0,0.0,0.0,0.0,0.0,0.0,0.0,0.4927142092101084,-0.342392622646075,0.5
0.815,TAKEOFF,0.25883543491363525,0.26198244094848633,0.0005481301341205835,0.0,0.0,0.0,-0.0,-0.0027675412129610777,-0.040129344910383224,0.0,0.0,0.0,0.0,0.0,0.0,0.0,0.5999600683633559,0.006922165083073673,0.5,0.6469107270240784,0.10014178603887558,6.365316221490502e-05,0.0,0.0,0.0,0.0027675412129610777,0.0027675412129610777,0.0,0.0,0.0,0.0,0.0,0.0,0.0,0.0,0.5997554608027,0.01712855035725174,0.5,0.6350604891777039,0.6199227571487427,5.68353570997715e-05,0.0,0.0,0.0,-0.0027675412129610777,-0.009686394594609737,0.024907870218157768,0.0,0.0,0.0,0.0,0.0,0.0,0.0,0.49271497002610365,-0.342391527804319,0.5
0.835,TAKEOFF,0.25883543491363525,0.26198244094848633,0.0005481301341205835,0.0,0.0,0.0,-0.0,-0.0027675412129610777,-0.040129344910383224,0.0,0.0,0.0,0.0,0.0,0.0,0.0,0.5999600379228035,0.006924802933521371,0.5,0.6469107270240784,0.10014178603887558,6.365316221490502e-05,0.0,0.0,0.0,0.0027675412129610777,0.0027675412129610777,0.0,0.0,0.0,0.0,0.0,0.0,0.0,0.0,0.5997552734773286,0.01713510829072169,0.5,0.6350604891777039,0.6199227571487427,5.68353570997715e-05,0.0,0.0,0.0,-0.0027675412129610777,-0.009686394594609737,0.024907870218157768,0.0,0.0,0.0,0.0,0.0,0.0,0.0,0.49271458914451965,-0.3423920759073539,0.5
0.855,TAKEOFF,0.25883543491363525,0.26198244094848633,0.0005481301341205835,0.0,0.0,0.0,-0.0,-0.0027675412129610777,-0.040129344910383224,0.0,0.0,0.0,0.0,0.0,0.0,0.0,0.5999600076534009,0.006927424956733722,0.5,0.6469107270240784,0.10014178603887558,6.365316221490502e-05,0.0,0.0,0.0,0.0027675412129610777,0.0027675412129610777,0.0,0.0,0.0,0.0,0.0,0.0,0.0,0.0,0.5997550872048467,0.01714162687456055,0.5,0.6350604891777039,0.6199227571487427,5.68353570997715e-05,0.0,0.0,0.0,-0.0027675412129610777,-0.009686394594609737,0.024907870218157768,0.0,0.0,0.0,0.0,0.0,0.0,0.0,0.4927142105476209,-0.3423926207213506,0.5
0.875,TAKEOFF,0.25862738490104675,0.26123154163360596,0.0003753202618099749,0.0,0.0,0.0,0.0,-0.0027675412129610777,-0.03874557837843895,0.0,0.0,0.0,0.0,0.0,0.0,0.0,0.5999599775542583,0.0069300312476756765,0.5,0.6469107270240784,0.10014178603887558,6.365316221490502e-05,0.0,0.0,0.0,0.0027675412129610777,0.0027675412129610777,0.0,0.0,0.0,0.0,0.0,0.0,0.0,0.0,0.5997549019797873,0.01714810634488963,0.5,0.6350604891777039,0.6199227571487427,5.68353570997715e-05,0.0,0.0,0.0,-0.0027675412129610777,-0.009686394594609737,0.024907870218157768,0.0,0.0,0.0,0.0,0.0,0.0,0.0,0.49271383422170656,-0.3423931622660486,0.5
0.897,TAKEOFF,0.25862738490104675,0.26123154163360596,0.0003753202618099749,0.0,0.0,0.0,0.0,-0.0027675412129610777,-0.03874557837843895,0.0,0.0,0.0,0.0,0.0,0.0,0.0,0.5999599476244905,0.006932621900742376,0.5,0.6469107270240784,0.10014178603887558,6.365316221490502e-05,0.0,0.0,0.0,0.0027675412129610777,0.0027675412129610777,0.0,0.0,0.0,0.0,0.0,0.0,0.0,0.0,0.5997548241138583,0.01715082948882997,0.5,0.6350604891777039,0.6199227571487427,5.68353570997715e-05,0.0,0.0,0.0,-0.0027675412129610777,-0.009686394594609737,0.024907870218157768,0.0,0.0,0.0,0.0,0.0,0.0,0.0,0.49271346015315776,-0.34239370056106844,0.5
0.915,TAKEOFF,0.25862738490104675,0.26123154163360596,0.0003753202618099749,0.0,0.0,0.0,0.0,-0.0027675412129610777,-0.03874557837843895,0.0,0.0,0.0,0.0,0.0,0.0,0.0,0.5999599178632151,0.006935197009762573,0.5,0.6465243101119995,0.10032197088003159,0.00036461889976635575,0.0,0.0,0.0,0.0027675412129610777,0.0,0.012453935109078884,0.0,0.0,0.0,0.0,0.0,0.0,0.0,0.5997547467028715,0.01715353629355627,0.5,0.6361814141273499,0.6201191544532776,0.0005874347407370806,0.0,0.0,0.0,-0.0013837706064805388,-0.006918853148818016,0.02214032970368862,0.0,0.0,0.0,0.0,0.0,0.0,0.0,0.4927130883284375,-0.34239423562591315,0.5
0.935,TAKEOFF,0.25862738490104675,0.26123154163360596,0.0003753202618099749,0.0,0.0,0.0,0.0,-0.0027675412129610777,-0.03874557837843895,0.0,0.0,0.0,0.0,0.0,0.0,0.0,0.5999599183662697,0.006935153490652876,0.5,0.6465243101119995,0.10032197088003159,0.00036461889976635575,0.0,0.0,0.0,0.0027675412129610777,0.0,0.012453935109078884,0.0,0.0,0.0,0.0,0.0,0.0,0.0,0.5997546697442442,0.017156226857107954,0.5,0.6361814141273499,0.6201191544532776,0.0005874347407370806,0.0,0.0,0.0,-0.0013837706064805388,-0.006918853148818016,0.02214032970368862,0.0,0.0,0.0,0.0,0.0,0.0,0.0,0.4927134634649458,-0.34239369579531903,0.5
0.955,TAKEOFF,0.25862738490104675,0.26123154163360596,0.0003753202618099749,0.0,0.0,0.0,0.0,-0.0027675412129610777,-0.03874557837843895,0.0,0.0,0.0,0.0,0.0,0.0,0.0,0.599959918866303,0.006935110232657801,0.5,0.6465243101119995,0.10032197088003159,0.00036461889976635575,0.0,0.0,0.0,0.0027675412129610777,0.0,0.012453935109078884,0.0,0.0,0.0,0.0,0.0,0.0,0.0,0.5997545932354068,0.017158901276936155,0.5,0.6361814141273499,0.6201191544532776,0.0005874347407370806,0.0,0.0,0.0,-0.0013837706064805388,-0.006918853148818016,0.02214032970368862,0.0,0.0,0.0,0.0,0.0,0.0,0.0,0.49271383635004895,-0.34239315920330116,0.5
0.975,TAKEOFF,0.25859951972961426,0.26144319772720337,0.00037661049282178283,0.0,0.0,0.0,-0.0,-0.004151311703026295,-0.03736180439591408,0.0,0.0,0.0,0.0,0.0,0.0,0.0,0.5999599193633329,0.006935067234210662,0.5,0.6465243101119995,0.10032197088003159,0.00036461889976635575,0.0,0.0,0.0,0.0027675412129610777,0.0,0.012453935109078884,0.0,0.0,0.0,0.0,0.0,0.0,0.0,0.5997545171738039,0.01716155964990726,0.5,0.6361814141273499,0.6201191544532776,0.0005874347407370806,0.0,0.0,0.0,-0.0013837706064805388,-0.006918853148818016,0.02214032970368862,0.0,0.0,0.0,0.0,0.0,0.0,0.0,0.4927142069972624,-0.3423926258304329,0.5
0.995,TAKEOFF,0.25859951972961426,0.26144319772720337,0.00037661049282178283,0.0,0.0,0.0,-0.0,-0.004151311703026295,-0.03736180439591408,0.0,0.0,0.0,0.0,0.0,0.0,0.0,0.5999599198573776,0.006935024493754168,0.5,0.6465243101119995,0.10032197088003159,0.00036461889976635575,0.0,0.0,0.0,0.0027675412129610777,0.0,0.012453935109078884,0.0,0.0,0.0,0.0,0.0,0.0,0.0,0.5997543943053143,0.017165853065476192,0.5,0.6361814141273499,0.6201191544532776,0.0005874347407370806,0.0,0.0,0.0,-0.0013837706064805388,-0.006918853148818016,0.02214032970368862,0.0,0.0,0.0,0.0,0.0,0.0,0.0,0.49271457542002034,-0.34239209565740425,0.5
1.015,TAKEOFF,0.25859951972961426,0.26144319772720337,0.00037661049282178283,0.0,0.0,0.0,-0.0,-0.004151311703026295,-0.03736180439591408,0.0,0.0,0.0,0.0,0.0,0.0,0.0,0.5999599170594921,0.006935266539016105,0.5,0.6471394896507263,0.09915810823440552,0.0024880915880203247,0.0,0.0,0.0,0.0027675412129610777,-0.0,0.019372789189219475,0.0,0.0,0.0,0.0,0.0,0.0,0.0,0.5997542721435768,0.01717012071967993,0.5,0.6364411115646362,0.620470404624939,-0.00015433902444783598,0.0,0.0,0.0,-0.0013837706064805388,-0.006918853148818016,0.017989017069339752,0.0,0.0,0.0,0.0,0.0,0.0,0.0,0.4927110367235273,-0.34239718791314117,0.5
1.035,TAKEOFF,0.25859951972961426,0.26144319772720337,0.00037661049282178283,0.0,0.0,0.0,-0.0,-0.004151311703026295,-0.03736180439591408,0.0,0.0,0.0,0.0,0.0,0.0,0.0,0.5999599142782973,0.006935507132005351,0.5,0.6471394896507263,0.09915810823440552,0.0024880915880203247,0.0,0.0,0.0,0.0027675412129610777,-0.0,0.019372789189219475,0.0,0.0,0.0,0.0,0.0,0.0,0.0,0.5997541506847153,0.017174362767096888,0.5,0.6364411115646362,0.620470404624939,-0.00015433902444783598,0.0,0.0,0.0,-0.0013837706064805388,-0.006918853148818016,0.017989017069339752,0.0,0.0,0.0,0.0,0.0,0.0,0.0,0.492707519207057,-0.34240224957909887,0.5
1.055,TAKEOFF,0.25859951972961426,0.26144319772720337,0.00037661049282178283,0.0,0.0,0.0,-0.0,-0.004151311703026295,-0.03736180439591408,0.0,0.0,0.0,0.0,0.0,0.0,0.0,0.599959911513694,0.006935746281435556,0.5,0.6471394896507263,0.09915810823440552,0.0024880915880203247,0.0,0.0,0.0,0.0027675412129610777,-0.0,0.019372789189219475,0.0,0.0,0.0,0.0,0.0,0.0,0.0,0.5997540299248725,0.01717857936137788,0.5,0.6364411115646362,0.620470404624939,-0.00015433902444783598,0.0,0.0,0.0,-0.0013837706064805388,-0.006918853148818016,0.017989017069339752,0.0,0.0,0.0,0.0,0.0,0.0,0.0,0.49270402274415365,-0.34240728083924926,0.5
1.075,TAKEOFF,0.2579129934310913,0.2616031765937805,4.6180313802324235e-05,0.0,0.0,0.0,-0.0,-0.005535082425922155,-0.020756559446454048,0.0,0.0,0.0,0.0,0.0,0.0,0.0,0.5999599087655838,0.006935983995968086,0.5,0.6471394896507263,0.09915810823440552,0.0024880915880203247,0.0,0.0,0.0,0.0027675412129610777,-0.0,0.019372789189219475,0.0,0.0,0.0,0.0,0.0,0.0,0.0,0.59975390986021,0.0171827706552517,0.5,0.6364411115646362,0.620470404624939,-0.00015433902444783598,0.0,0.0,0.0,-0.0013837706064805388,-0.006918853148818016,0.017989017069339752,0.0,0.0,0.0,0.0,0.0,0.0,0.0,0.4927005472091126,-0.3424122818764551,0.5
1.095,TAKEOFF,0.2579129934310913,0.2616031765937805,4.6180313802324235e-05,0.0,0.0,0.0,-0.0,-0.005535082425922155,-0.020756559446454048,0.0,0.0,0.0,0.0,0.0,0.0,0.0,0.599959906033869,0.006936220284212342,0.5,0.6471394896507263,0.09915810823440552,0.0024880915880203247,0.0,0.0,0.0,0.0027675412129610777,-0.0,0.019372789189219475,0.0,0.0,0.0,0.0,0.0,0.0,0.0,0.5997536218657703,0.01719281998075377,0.5,0.6364411115646362,0.620470404624939,-0.00015433902444783598,0.0,0.0,0.0,-0.0013837706064805388,-0.006918853148818016,0.017989017069339752,0.0,0.0,0.0,0.0,0.0,0.0,0.0,0.4926970924769764,-0.34241725287247676,0.5
1.115,TAKEOFF,0.2579129934310913,0.2616031765937805,4.6180313802324235e-05,0.0,0.0,0.0,-0.0,-0.005535082425922155,-0.020756559446454048,0.0,0.0,0.0,0.0,0.0,0.0,0.0,0.5999597792578232,0.006947177333568678,0.5,0.6476669311523438,0.097259022295475,0.005608538165688515,0.0,0.0,0.0,0.0027675412129610777,-0.0027675412129610777,0.02214032970368862,0.0,0.0,0.0,0.0,0.0,0.0,0.0,0.5997533354324256,0.017202809005519216,0.5,0.6350012421607971,0.6227664947509766,0.002043206477537751,0.0,0.0,0.0,-0.004151311703026295,-0.0027675412129610777,0.017989017069339752,0.0,0.0,0.0,0.0,0.0,0.0,0.0,0.4926875189656613,-0.34243102758871186,0.5
1.135,TAKEOFF,0.2579129934310913,0.2616031765937805,4.6180313802324235e-05,0.0,0.0,0.0,-0.0,-0.005535082425922155,-0.020756559446454048,0.0,0.0,0.0,0.0,0.0,0.0,0.0,0.5999596530441228,0.006958068638332559,0.5,0.6476669311523438,0.097259022295475,0.005608538165688515,0.0,0.0,0.0,0.0027675412129610777,-0.0027675412129610777,0.02214032970368862,0.0,0.0,0.0,0.0,0.0,0.0,0.0,0.5997530505528059,0.017212738091406943,0.5,0.6350012421607971,0.6227664947509766,0.002043206477537751,0.0,0.0,0.0,-0.004151311703026295,-0.0027675412129610777,0.017989017069339752,0.0,0.0,0.0,0.0,0.0,0.0,0.0,0.4926780025137626,-0.3424447193913916,0.5
1.155,TAKEOFF,0.2579129934310913,0.2616031765937805,4.6180313802324235e-05,0.0,0.0,0.0,-0.0,-0.005535082425922155,-0.020756559446454048,0.0,0.0,0.0,0.0,0.0,0.0,0.0,0.5999595273917664,0.006968894592995459,0.5,0.6476669311523438,0.097259022295475,0.005608538165688515,0.0,0.0,0.0,0.0027675412129610777,-0.0027675412129610777,0.02214032970368862,0.0,0.0,0.0,0.0,0.0,0.0,0.0,0.5997527672195616,0.017222607598104095,0.5,0.6350012421607971,0.6227664947509766,0.002043206477537751,0.0,0.0,0.0,-0.004151311703026295,-0.0027675412129610777,0.017989017069339752,0.0,0.0,0.0,0.0,0.0,0.0,0.0,0.49266854278349725,-0.34245832878116034,0.5
1.175,TAKEOFF,0.25780799984931946,0.2619246542453766,0.00012753700139001012,0.0,0.0,0.0,-0.0,-0.005535082425922155,0.0027675412129610777,0.0,0.0,0.0,0.0,0.0,0.0,0.0,0.5999595273917664,0.006968894592995459,0.5,0.6476669311523438,0.097259022295475,0.005608538165688515,0.0,0.0,0.0,0.0027675412129610777,-0.0027675412129610777,0.02214032970368862,0.0,0.0,0.0,0.0,0.0,0.0,0.0,0.5997527672195616,0.017222607598104095,0.5,0.6350012421607971,0.6227664947509766,0.002043206477537751,0.0,0.0,0.0,-0.004151311703026295,-0.0027675412129610777,0.017989017069339752,0.0,0.0,0.0,0.0,0.0,0.0,0.0,0.49266854278349725,-0.34245832878116034,0.5
1.498,TAKEOFF,0.25780799984931946,0.2619246542453766,0.00012753700139001012,0.0,0.0,0.0,-0.0,-0.005535082425922155,0.0027675412129610777,0.0,0.0,0.0,0.0,0.0,0.0,0.0,0.5999595273917664,0.006968894592995459,0.5,0.6476669311523438,0.097259022295475,0.005608538165688515,0.0,0.0,0.0,0.0027675412129610777,-0.0027675412129610777,0.02214032970368862,0.0,0.0,0.0,0.0,0.0,0.0,0.0,0.5997527672195616,0.017222607598104095,0.5,0.6350012421607971,0.6227664947509766,0.002043206477537751,0.0,0.0,0.0,-0.004151311703026295,-0.0027675412129610777,0.017989017069339752,0.0,0.0,0.0,0.0,0.0,0.0,0.0,0.49266854278349725,-0.34245832878116034,0.5
1.516,TAKEOFF,0.2505651116371155,0.2661776840686798,0.0020383684895932674,0.0,0.0,0.0,-0.004151311703026295,-0.017989017069339752,0.05119951069355011,0.0,0.0,0.0,0.0,0.0,0.0,0.0,0.5999593316322799,0.006985727402925545,0.5,0.6168335676193237,0.10418470948934555,0.008643926121294498,0.0,0.0,0.0,0.006918853148818016,0.00830262340605259,0.019372789189219475,0.0,0.0,0.0,0.0,0.0,0.0,0.0,0.5997327624469236,0.01790568758193347,0.5,0.6609277129173279,0.6297352313995361,0.005123736336827278,0.0,0.0,0.0,0.005535082425922155,-0.015221476554870605,0.023524099960923195,0.0,0.0,0.0,0.0,0.0,0.0,0.0,0.49302272333004743,-0.34194823333397045,0.5
1.535,TAKEOFF,0.2505651116371155,0.2661776840686798,0.0020383684895932674,0.0,0.0,0.0,-0.004151311703026295,-0.017989017069339752,0.05119951069355011,0.0,0.0,0.0,0.0,0.0,0.0,0.0,0.5999598111667694,0.006944421123060229,0.5,0.6168335676193237,0.10418470948934555,0.008643926121294498,0.0,0.0,0.0,0.006918853148818016,0.00830262340605259,0.019372789189219475,0.0,0.0,0.0,0.0,0.0,0.0,0.0,0.5997301034802098,0.017994526379341295,0.5,0.6609277129173279,0.6297352313995361,0.005123736336827278,0.0,0.0,0.0,0.005535082425922155,-0.015221476554870605,0.023524099960923195,0.0,0.0,0.0,0.0,0.0,0.0,0.0,0.49304869104822224,-0.34191078990817864,0.5
1.555,TAKEOFF,0.2505651116371155,0.2661776840686798,0.0020383684895932674,0.0,0.0,0.0,-0.004151311703026295,-0.017989017069339752,0.05119951069355011,0.0,0.0,0.0,0.0,0.0,0.0,0.0,0.5999602850057216,0.006903362648252076,0.5,0.6168335676193237,0.10418470948934555,0.008643926121294498,0.0,0.0,0.0,0.006918853148818016,0.00830262340605259,0.019372789189219475,0.0,0.0,0.0,0.0,0.0,0.0,0.0,0.5997274474257492,0.018082831752665084,0.5,0.6609277129173279,0.6297352313995361,0.005123736336827278,0.0,0.0,0.0,0.005535082425922155,-0.015221476554870605,0.023524099960923195,0.0,0.0,0.0,0.0,0.0,0.0,0.0,0.4930745001419276,-0.34187356918865236,0.5
1.575,TAKEOFF,0.24518534541130066,0.26883623003959656,0.0006306880386546254,0.0,0.0,0.0,-0.0013837706064805388,-0.01107016485184431,0.07057230174541473,0.0,0.0,0.0,0.0,0.0,0.0,0.0,0.599960753217026,0.006862550492251602,0.5,0.6168335676193237,0.10418470948934555,0.008643926121294498,0.0,0.0,0.0,0.006918853148818016,0.00830262340605259,0.019372789189219475,0.0,0.0,0.0,0.0,0.0,0.0,0.0,0.5997230719105426,0.01822737002922015,0.5,0.6609277129173279,0.6297352313995361,0.005123736336827278,0.0,0.0,0.0,0.005535082425922155,-0.015221476554870605,0.023524099960923195,0.0,0.0,0.0,0.0,0.0,0.0,0.0,0.4931001515964809,-0.3418365698627452,0.5
1.595,TAKEOFF,0.24518534541130066,0.26883623003959656,0.0006306880386546254,0.0,0.0,0.0,-0.0013837706064805388,-0.01107016485184431,0.07057230174541473,0.0,0.0,0.0,0.0,0.0,0.0,0.0,0.5999612158677616,0.00682198317771646,0.5,0.6168335676193237,0.10418470948934555,0.008643926121294498,0.0,0.0,0.0,0.006918853148818016,0.00830262340605259,0.019372789189219475,0.0,0.0,0.0,0.0,0.0,0.0,0.0,0.5997186881266329,0.01837104002691241,0.5,0.6609277129173279,0.6297352313995361,0.005123736336827278,0.0,0.0,0.0,0.005535082425922155,-0.015221476554870605,0.023524099960923195,0.0,0.0,0.0,0.0,0.0,0.0,0.0,0.493125646390889,-0.34179979062540083,0.5
1.615,TAKEOFF,0.24518534541130066,0.26883623003959656,0.0006306880386546254,0.0,0.0,0.0,-0.0013837706064805388,-0.01107016485184431,0.07057230174541473,0.0,0.0,0.0,0.0,0.0,0.0,0.0,0.5999618571218645,0.006765352827718347,0.5,0.608149528503418,0.09878692030906677,0.014167767018079758,0.0,0.0,0.0,0.004151311703026295,0.017989017069339752,0.01660524681210518,0.0,0.0,0.0,0.0,0.0,0.0,0.0,0.5997142965369003,0.018513846959796496,0.5,0.666712760925293,0.6295101046562195,0.005693220999091864,0.0,0.0,0.0,0.0,-0.03321049362421036,0.023524099960923195,0.0,0.0,0.0,0.0,0.0,0.0,0.0,0.49313808447428337,-0.3417818451015714,0.5
1.635,TAKEOFF,0.24518534541130066,0.26883623003959656,0.0006306880386546254,0.0,0.0,0.0,-0.0013837706064805388,-0.01107016485184431,0.07057230174541473,0.0,0.0,0.0,0.0,0.0,0.0,0.0,0.5999624892311147,0.006709062200084938,0.5,0.608149528503418,0.09878692030906677,0.014167767018079758,0.0,0.0,0.0,0.004151311703026295,0.017989017069339752,0.01660524681210518,0.0,0.0,0.0,0.0,0.0,0.0,0.0,0.5997098975965011,0.018655796010736553,0.5,0.666712760925293,0.6295101046562195,0.005693220999091864,0.0,0.0,0.0,0.0,-0.03321049362421036,0.023524099960923195,0.0,0.0,0.0,0.0,0.0,0.0,0.0,0.49315044728198076,-0.3417640068023288,0.5
1.655,TAKEOFF,0.24518534541130066,0.26883623003959656,0.0006306880386546254,0.0,0.0,0.0,-0.0013837706064805388,-0.01107016485184431,0.07057230174541473,0.0,0.0,0.0,0.0,0.0,0.0,0.0,0.5999631123137532,0.006653109257687793,0.5,0.608149528503418,0.09878692030906677,0.014167767018079758,0.0,0.0,0.0,0.004151311703026295,0.017989017069339752,0.01660524681210518,0.0,0.0,0.0,0.0,0.0,0.0,0.0,0.5997054917529725,0.018796892331589633,0.5,0.666712760925293,0.6295101046562195,0.005693220999091864,0.0,0.0,0.0,0.0,-0.03321049362421036,0.023524099960923195,0.0,0.0,0.0,0.0,0.0,0.0,0.0,0.4931627352733625,-0.3417462750897153,0.5
1.675,TAKEOFF,0.23827528953552246,0.27139514684677124,0.00036106875631958246,0.0,0.0,0.0,-0.006918853148818016,-0.00830262340605259,0.08025868982076645,0.0,0.0,0.0,0.0,0.0,0.0,0.0,0.5999637264865535,0.00659749197559803,0.5,0.608149528503418,0.09878692030906677,0.014167767018079758,0.0,0.0,0.0,0.004151311703026295,0.017989017069339752,0.01660524681210518,0.0,0.0,0.0,0.0,0.0,0.0,0.0,0.5997010794463379,0.018937141043388107,0.5,0.666712760925293,0.6295101046562195,0.005693220999091864,0.0,0.0,0.0,0.0,-0.03321049362421036,0.023524099960923195,0.0,0.0,0.0,0.0,0.0,0.0,0.0,0.49317494890496116,-0.34172864932953584,0.5
1.695,TAKEOFF,0.23827528953552246,0.27139514684677124,0.00036106875631958246,0.0,0.0,0.0,-0.006918853148818016,-0.00830262340605259,0.08025868982076645,0.0,0.0,0.0,0.0,0.0,0.0,0.0,0.5999643318648391,0.006542208341013563,0.5,0.608149528503418,0.09878692030906677,0.014167767018079758,0.0,0.0,0.0,0.004151311703026295,0.017989017069339752,0.01660524681210518,0.0,0.0,0.0,0.0,0.0,0.0,0.0,0.5996944925236647,0.01914459810976078,0.5,0.666712760925293,0.6295101046562195,0.005693220999091864,0.0,0.0,0.0,0.0,-0.03321049362421036,0.023524099960923195,0.0,0.0,0.0,0.0,0.0,0.0,0.0,0.49318708863047944,-0.3417111288913365,0.5
1.715,TAKEOFF,0.23827528953552246,0.27139514684677124,0.00036106875631958246,0.0,0.0,0.0,-0.006918853148818016,-0.00830262340605259,0.08025868982076645,0.0,0.0,0.0,0.0,0.0,0.0,0.0,0.5999649868996432,0.006481858877745478,0.5,0.6008172035217285,0.09520892798900604,0.02072356455028057,0.0,0.0,0.0,-0.01660524681210518,0.03874557837843895,0.015221476554870605,0.0,0.0,0.0,0.0,0.0,0.0,0.0,0.5996878740006565,0.01935080816329566,0.5,0.6678150296211243,0.6286595463752747,0.009591791778802872,0.0,0.0,0.0,0.005535082425922155,-0.027675412595272064,0.03044295310974121,0.0,0.0,0.0,0.0,0.0,0.0,0.0,0.49319121427309737,-0.3417051743299006,0.5
1.735,TAKEOFF,0.23827528953552246,0.27139514684677124,0.00036106875631958246,0.0,0.0,0.0,-0.006918853148818016,-0.00830262340605259,0.08025868982076645,0.0,0.0,0.0,0.0,0.0,0.0,0.0,0.5999656319883062,0.006421871446261295,0.5,0.6008172035217285,0.09520892798900604,0.02072356455028057,0.0,0.0,0.0,-0.01660524681210518,0.03874557837843895,0.015221476554870605,0.0,0.0,0.0,0.0,0.0,0.0,0.0,0.599681224918593,0.01955577868906975,0.5,0.6678150296211243,0.6286595463752747,0.009591791778802872,0.0,0.0,0.0,0.005535082425922155,-0.027675412595272064,0.03044295310974121,0.0,0.0,0.0,0.0,0.0,0.0,0.0,0.49319531509061204,-0.34169925544646984,0.5
1.755,TAKEOFF,0.23827528953552246,0.27139514684677124,0.00036106875631958246,0.0,0.0,0.0,-0.006918853148818016,-0.00830262340605259,0.08025868982076645,0.0,0.0,0.0,0.0,0.0,0.0,0.0,0.5999662672624733,0.00636224387574223,0.5,0.6008172035217285,0.09520892798900604,0.02072356455028057,0.0,0.0,0.0,-0.01660524681210518,0.03874557837843895,0.015221476554870605,0.0,0.0,0.0,0.0,0.0,0.0,0.0,0.5996745463023108,0.019759517127646294,0.5,0.6678150296211243,0.6286595463752747,0.009591791778802872,0.0,0.0,0.0,0.005535082425922155,-0.027675412595272064,0.03044295310974121,0.0,0.0,0.0,0.0,0.0,0.0,0.0,0.4931993912328261,-0.3416933720275676,0.5
1.775,TAKEOFF,0.23357704281806946,0.2769821882247925,0.0076811183243989944,0.0,0.0,0.0,-0.004151311703026295,0.005535082425922155,0.08579377084970474,0.0,0.0,0.0,0.0,0.0,0.0,0.0,0.5999668928521389,0.006302974008367366,0.5,0.6008172035217285,0.09520892798900604,0.02072356455028057,0.0,0.0,0.0,-0.01660524681210518,0.03874557837843895,0.015221476554870605,0.0,0.0,0.0,0.0,0.0,0.0,0.0,0.5996678391604242,0.019962030875329398,0.5,0.6678150296211243,0.6286595463752747,0.009591791778802872,0.0,0.0,0.0,0.005535082425922155,-0.027675412595272064,0.03044295310974121,0.0,0.0,0.0,0.0,0.0,0.0,0.0,0.4932034428486328,-0.3416875238609911,0.5
1.795,TAKEOFF,0.23357704281806946,0.2769821882247925,0.0076811183243989944,0.0,0.0,0.0,-0.004151311703026295,0.005535082425922155,0.08579377084970474,0.0,0.0,0.0,0.0,0.0,0.0,0.0,0.5999675088856665,0.0062440596992361826,0.5,0.6008172035217285,0.09520892798900604,0.02072356455028057,0.0,0.0,0.0,-0.01660524681210518,0.03874557837843895,0.015221476554870605,0.0,0.0,0.0,0.0,0.0,0.0,0.0,0.5996586903636805,0.020234996202511037,0.5,0.6678150296211243,0.6286595463752747,0.009591791778802872,0.0,0.0,0.0,0.005535082425922155,-0.027675412595272064,0.03044295310974121,0.0,0.0,0.0,0.0,0.0,0.0,0.0,0.4932074700860222,-0.34168171073580367,0.5
1.815,TAKEOFF,0.23357704281806946,0.2769821882247925,0.0076811183243989944,0.0,0.0,0.0,-0.004151311703026295,0.005535082425922155,0.08579377084970474,0.0,0.0,0.0,0.0,0.0,0.0,0.0,0.5999680677478324,0.006190127860749592,0.5,0.6063429117202759,0.10215308517217636,0.021792378276586533,0.0,0.0,0.0,-0.0013837706064805388,0.04289688542485237,0.020756559446454048,0.0,0.0,0.0,0.0,0.0,0.0,0.0,0.5996494733235174,0.020506319582710614,0.5,0.6657268404960632,0.6283104419708252,0.018920518457889557,0.0,0.0,0.0,0.009686394594609737,-0.03044295310974121,0.03321049362421036,0.0,0.0,0.0,0.0,0.0,0.0,0.0,0.49323145586331346,-0.3416470853775227,0.5
1.835,TAKEOFF,0.23357704281806946,0.2769821882247925,0.0076811183243989944,0.0,0.0,0.0,-0.004151311703026295,0.005535082425922155,0.08579377084970474,0.0,0.0,0.0,0.0,0.0,0.0,0.0,0.5999686184523687,0.00613651956372342,0.5,0.6063429117202759,0.10215308517217636,0.021792378276586533,0.0,0.0,0.0,-0.0013837706064805388,0.04289688542485237,0.020756559446454048,0.0,0.0,0.0,0.0,0.0,0.0,0.0,0.5996401899244669,0.020776010862271998,0.5,0.6657268404960632,0.6283104419708252,0.018920518457889557,0.0,0.0,0.0,0.009686394594609737,-0.03044295310974121,0.03321049362421036,0.0,0.0,0.0,0.0,0.0,0.0,0.0,0.4932552953169208,-0.3416126661027327,0.5
1.855,TAKEOFF,0.23357704281806946,0.2769821882247925,0.0076811183243989944,0.0,0.0,0.0,-0.004151311703026295,0.005535082425922155,0.08579377084970474,0.0,0.0,0.0,0.0,0.0,0.0,0.0,0.5999691611056976,0.0060832328679261225,0.5,0.6063429117202759,0.10215308517217636,0.021792378276586533,0.0,0.0,0.0,-0.0013837706064805388,0.04289688542485237,0.020756559446454048,0.0,0.0,0.0,0.0,0.0,0.0,0.0,0.599630842022097,0.02104407982951063,0.5,0.6657268404960632,0.6283104419708252,0.018920518457889557,0.0,0.0,0.0,0.009686394594609737,-0.03044295310974121,0.03321049362421036,0.0,0.0,0.0,0.0,0.0,0.0,0.0,0.4932789893534931,-0.3415784516950629,0.5
1.875,TAKEOFF,0.2285732924938202,0.27869752049446106,0.014009663835167885,0.0,0.0,0.0,0.009686394594609737,0.009686394594609737,0.08994509279727936,0.0,0.0,0.0,0.0,0.0,0.0,0.0,0.5999696958129149,0.006030265844747784,0.5,0.6063429117202759,0.10215308517217636,0.021792378276586533,0.0,0.0,0.0,-0.0013837706064805388,0.04289688542485237,0.020756559446454048,0.0,0.0,0.0,0.0,0.0,0.0,0.0,0.5996214314433964,0.0213105362150315,0.5,0.6657268404960632,0.6283104419708252,0.018920518457889557,0.0,0.0,0.0,0.009686394594609737,-0.03044295310974121,0.03321049362421036,0.0,0.0,0.0,0.0,0.0,0.0,0.0,0.4933025388738975,-0.34154444094519654,0.5
1.895,TAKEOFF,0.2285732924938202,0.27869752049446106,0.014009663835167885,0.0,0.0,0.0,0.009686394594609737,0.009686394594609737,0.08994509279727936,0.0,0.0,0.0,0.0,0.0,0.0,0.0,0.5999702226778065,0.005977616577130764,0.5,0.6063429117202759,0.10215308517217636,0.021792378276586533,0.0,0.0,0.0,-0.0013837706064805388,0.04289688542485237,0.020756559446454048,0.0,0.0,0.0,0.0,0.0,0.0,0.0,0.5996101869449175,0.021624608941691485,0.5,0.6657268404960632,0.6283104419708252,0.018920518457889557,0.0,0.0,0.0,0.009686394594609737,-0.03044295310974121,0.03321049362421036,0.0,0.0,0.0,0.0,0.0,0.0,0.0,0.4933259447732588,-0.3415106326508321,0.5
1.915,TAKEOFF,0.2285732924938202,0.27869752049446106,0.014009663835167885,0.0,0.0,0.0,0.009686394594609737,0.009686394594609737,0.08994509279727936,0.0,0.0,0.0,0.0,0.0,0.0,0.0,0.599970665027074,0.005933052078874716,0.5,0.6135290861129761,0.10494678467512131,0.03259267657995224,0.0,0.0,0.0,-0.0027675412129610777,0.0,0.031826723366975784,0.0,0.0,0.0,0.0,0.0,0.0,0.0,0.5995988468844415,0.02193679135261246,0.5,0.6600750684738159,0.6256752610206604,0.03158135712146759,0.0,0.0,0.0,-0.009686394594609737,-0.0027675412129610777,0.03044295310974121,0.0,0.0,0.0,0.0,0.0,0.0,0.0,0.4933543462281664,-0.34146960195276316,0.5
1.935,TAKEOFF,0.2285732924938202,0.27869752049446106,0.014009663835167885,0.0,0.0,0.0,0.009686394594609737,0.009686394594609737,0.08994509279727936,0.0,0.0,0.0,0.0,0.0,0.0,0.0,0.5999711014418224,0.005888754935167927,0.5,0.6135290861129761,0.10494678467512131,0.03259267657995224,0.0,0.0,0.0,-0.0027675412129610777,0.0,0.031826723366975784,0.0,0.0,0.0,0.0,0.0,0.0,0.0,0.5995874137888656,0.022247094776164458,0.5,0.6600750684738159,0.6256752610206604,0.03158135712146759,0.0,0.0,0.0,-0.009686394594609737,-0.0027675412129610777,0.03044295310974121,0.0,0.0,0.0,0.0,0.0,0.0,0.0,0.49338257389240875,-0.34142881509811357,0.5
1.955,TAKEOFF,0.2285732924938202,0.27869752049446106,0.014009663835167885,0.0,0.0,0.0,0.009686394594609737,0.009686394594609737,0.08994509279727936,0.0,0.0,0.0,0.0,0.0,0.0,0.0,0.5999715319969037,0.005844723542510525,0.5,0.6135290861129761,0.10494678467512131,0.03259267657995224,0.0,0.0,0.0,-0.0027675412129610777,0.0,0.031826723366975784,0.0,0.0,0.0,0.0,0.0,0.0,0.0,0.5995758901465418,0.02255553047441119,0.5,0.6600750684738159,0.6256752610206604,0.03158135712146759,0.0,0.0,0.0,-0.009686394594609737,-0.0027675412129610777,0.03044295310974121,0.0,0.0,0.0,0.0,0.0,0.0,0.0,0.4934106288490003,-0.3413882706521038,0.5
1.975,TAKEOFF,0.22554677724838257,0.2810588777065277,0.022067617624998093,0.0,0.0,0.0,0.01660524681210518,0.03874557837843895,0.09548017382621765,0.0,0.0,0.0,0.0,0.0,0.0,0.0,0.5999719567662509,0.005800956307011843,0.5,0.6135290861129761,0.10494678467512131,0.03259267657995224,0.0,0.0,0.0,-0.0027675412129610777,0.0,0.031826723366975784,0.0,0.0,0.0,0.0,0.0,0.0,0.0,0.599564278407787,0.0228621096434611,0.5,0.6600750684738159,0.6256752610206604,0.03158135712146759,0.0,0.0,0.0,-0.009686394594609737,-0.0027675412129610777,0.03044295310974121,0.0,0.0,0.0,0.0,0.0,0.0,0.0,0.4934385121739787,-0.34134796718822014,0.5
1.995,TAKEOFF,0.22554677724838257,0.2810588777065277,0.022067617624998093,0.0,0.0,0.0,0.01660524681210518,0.03874557837843895,0.09548017382621765,0.0,0.0,0.0,0.0,0.0,0.0,0.0,0.59997237582289,0.005757451644332994,0.5,0.6135290861129761,0.10494678467512131,0.03259267657995224,0.0,0.0,0.0,-0.0027675412129610777,0.0,0.031826723366975784,0.0,0.0,0.0,0.0,0.0,0.0,0.0,0.5995510995023833,0.023205152132302922,0.5,0.6600750684738159,0.6256752610206604,0.03158135712146759,0.0,0.0,0.0,-0.009686394594609737,-0.0027675412129610777,0.03044295310974121,0.0,0.0,0.0,0.0,0.0,0.0,0.0,0.49346622493645315,-0.34130790328816857,0.5
2.015,TAKEOFF,0.22554677724838257,0.2810588777065277,0.022067617624998093,0.0,0.0,0.0,0.01660524681210518,0.03874557837843895,0.09548017382621765,0.0,0.0,0.0,0.0,0.0,0.0,0.0,0.5999726297357337,0.005730930813412762,0.5,0.6190484166145325,0.10432155430316925,0.04115372523665428,0.0,0.0,0.0,0.00830262340605259,-0.0013837706064805388,0.03736180439591408,0.0,0.0,0.0,0.0,0.0,0.0,0.0,0.5995378051605589,0.023546128838084258,0.5,0.6535983085632324,0.6253258585929871,0.0431327223777771,0.0,0.0,0.0,-0.019372789189219475,0.02214032970368862,0.020756559446454048,0.0,0.0,0.0,0.0,0.0,0.0,0.0,0.49348872274788214,-0.3412753734459372,0.5
2.035,TAKEOFF,0.22554677724838257,0.2810588777065277,0.022067617624998093,0.0,0.0,0.0,0.01660524681210518,0.03874557837843895,0.09548017382621765,0.0,0.0,0.0,0.0,0.0,0.0,0.0,0.5999728809633187,0.005704569096380624,0.5,0.6190484166145325,0.10432155430316925,0.04115372523665428,0.0,0.0,0.0,0.00830262340605259,-0.0013837706064805388,0.03736180439591408,0.0,0.0,0.0,0.0,0.0,0.0,0.0,0.5995243984063098,0.023885052136270502,0.5,0.6535983085632324,0.6253258585929871,0.0431327223777771,0.0,0.0,0.0,-0.019372789189219475,0.02214032970368862,0.020756559446454048,0.0,0.0,0.0,0.0,0.0,0.0,0.0,0.4935110834473003,-0.34124303731310285,0.5
2.055,TAKEOFF,0.22554677724838257,0.2810588777065277,0.022067617624998093,0.0,0.0,0.0,0.01660524681210518,0.03874557837843895,0.09548017382621765,0.0,0.0,0.0,0.0,0.0,0.0,0.0,0.5999731295356555,0.005678365538736457,0.5,0.6190484166145325,0.10432155430316925,0.04115372523665428,0.0,0.0,0.0,0.00830262340605259,-0.0013837706064805388,0.03736180439591408,0.0,0.0,0.0,0.0,0.0,0.0,0.0,0.5995108822175795,0.024221934330262353,0.5,0.6535983085632324,0.6253258585929871,0.0431327223777771,0.0,0.0,0.0,-0.019372789189219475,0.02214032970368862,0.020756559446454048,0.0,0.0,0.0,0.0,0.0,0.0,0.0,0.49353330788271,-0.34121089374512964,0.5
2.075,TAKEOFF,0.22783489525318146,0.280100017786026,0.03051861748099327,0.0,0.0,0.0,0.004151311703026295,0.012453935109078884,0.10239902138710022,0.0,0.0,0.0,0.0,0.0,0.0,0.0,0.5999733754824085,0.005652319191704047,0.5,0.6190484166145325,0.10432155430316925,0.04115372523665428,0.0,0.0,0.0,0.00830262340605259,-0.0013837706064805388,0.03736180439591408,0.0,0.0,0.0,0.0,0.0,0.0,0.0,0.5994972595268688,0.02455678765176697,0.5,0.6535983085632324,0.6253258585929871,0.0431327223777771,0.0,0.0,0.0,-0.019372789189219475,0.02214032970368862,0.020756559446454048,0.0,0.0,0.0,0.0,0.0,0.0,0.0,0.49355539689672384,-0.3411789416041344,0.5
2.095,TAKEOFF,0.22783489525318146,0.280100017786026,0.03051861748099327,0.0,0.0,0.0,0.004151311703026295,0.012453935109078884,0.10239902138710022,0.0,0.0,0.0,0.0,0.0,0.0,0.0,0.5999736188328996,0.005626429112196793,0.5,0.6190484166145325,0.10432155430316925,0.04115372523665428,0.0,0.0,0.0,0.00830262340605259,-0.0013837706064805388,0.03736180439591408,0.0,0.0,0.0,0.0,0.0,0.0,0.0,0.5994845190824413,0.024865867780837773,0.5,0.6535983085632324,0.6253258585929871,0.0431327223777771,0.0,0.0,0.0,-0.019372789189219475,0.02214032970368862,0.020756559446454048,0.0,0.0,0.0,0.0,0.0,0.0,0.0,0.4935773513266012,-0.3411471797588496,0.5
2.115,TAKEOFF,0.22783489525318146,0.280100017786026,0.03051861748099327,0.0,0.0,0.0,0.004151311703026295,0.012453935109078884,0.10239902138710022,0.0,0.0,0.0,0.0,0.0,0.0,0.0,0.5999736989198472,0.005617882558092275,0.5,0.6261134147644043,0.10476630926132202,0.05231422930955887,0.0,0.0,0.0,-0.0027675412129610777,-0.004151311703026295,0.031826723366975784,0.0,0.0,0.0,0.0,0.0,0.0,0.0,0.5994716971609111,0.025173086878982835,0.5,0.6532117128372192,0.6309572458267212,0.05272091180086136,0.0,0.0,0.0,-0.009686394594609737,0.004151311703026295,0.0027675412129610777,0.0,0.0,0.0,0.0,0.0,0.0,0.0,0.49359680081258167,-0.3411190382074629,0.5
2.135,TAKEOFF,0.22783489525318146,0.280100017786026,0.03051861748099327,0.0,0.0,0.0,0.004151311703026295,0.012453935109078884,0.10239902138710022,0.0,0.0,0.0,0.0,0.0,0.0,0.0,0.599973778405622,0.005609387282182657,0.5,0.6261134147644043,0.10476630926132202,0.05231422930955887,0.0,0.0,0.0,-0.0027675412129610777,-0.004151311703026295,0.031826723366975784,0.0,0.0,0.0,0.0,0.0,0.0,0.0,0.5994587961438305,0.02547845611079152,0.5,0.6532117128372192,0.6309572458267212,0.05272091180086136,0.0,0.0,0.0,-0.009686394594609737,0.004151311703026295,0.0027675412129610777,0.0,0.0,0.0,0.0,0.0,0.0,0.0,0.4936161320115539,-0.34109106440648973,0.5
2.155,TAKEOFF,0.22783489525318146,0.280100017786026,0.03051861748099327,0.0,0.0,0.0,0.004151311703026295,0.012453935109078884,0.10239902138710022,0.0,0.0,0.0,0.0,0.0,0.0,0.0,0.5999738572952745,0.005600942976813975,0.5,0.6261134147644043,0.10476630926132202,0.05231422930955887,0.0,0.0,0.0,-0.0027675412129610777,-0.004151311703026295,0.031826723366975784,0.0,0.0,0.0,0.0,0.0,0.0,0.0,0.5994458183757979,0.02578198657531713,0.5,0.6532117128372192,0.6309572458267212,0.05272091180086136,0.0,0.0,0.0,-0.009686394594609737,0.004151311703026295,0.0027675412129610777,0.0,0.0,0.0,0.0,0.0,0.0,0.0,0.49363534565220235,-0.3410632573626639,0.5
2.175,TAKEOFF,0.2320515215396881,0.27905213832855225,0.04084903001785278,0.0,0.0,0.0,0.006918853148818016,0.0027675412129610777,0.10516656935214996,0.0,0.0,0.0,0.0,0.0,0.0,0.0,0.5999739355938076,0.005592549336177973,0.5,0.6261134147644043,0.10476630926132202,0.05231422930955887,0.0,0.0,0.0,-0.0027675412129610777,-0.004151311703026295,0.031826723366975784,0.0,0.0,0.0,0.0,0.0,0.0,0.0,0.599434460639375,0.02604471919567598,0.5,0.6532117128372192,0.6309572458267212,0.05272091180086136,0.0,0.0,0.0,-0.009686394594609737,0.004151311703026295,0.0027675412129610777,0.0,0.0,0.0,0.0,0.0,0.0,0.0,0.49365444245861334,-0.34103561608851884,0.5
2.195,TAKEOFF,0.2320515215396881,0.27905213832855225,0.04084903001785278,0.0,0.0,0.0,0.006918853148818016,0.0027675412129610777,0.10516656935214996,0.0,0.0,0.0,0.0,0.0,0.0,0.0,0.5999740133061771,0.0055842060563010415,0.5,0.6261134147644043,0.10476630926132202,0.05231422930955887,0.0,0.0,0.0,-0.0027675412129610777,-0.004151311703026295,0.031826723366975784,0.0,0.0,0.0,0.0,0.0,0.0,0.0,0.5994230569299395,0.026305870462058432,0.5,0.6532117128372192,0.6309572458267212,0.05272091180086136,0.0,0.0,0.0,-0.009686394594609737,0.004151311703026295,0.0027675412129610777,0.0,0.0,0.0,0.0,0.0,0.0,0.0,0.49367342315030593,-0.3410081396023546,0.5
2.215,TAKEOFF,0.2320515215396881,0.27905213832855225,0.04084903001785278,0.0,0.0,0.0,0.006918853148818016,0.0027675412129610777,0.10516656935214996,0.0,0.0,0.0,0.0,0.0,0.0,0.0,0.5999740904372922,0.0055759128350331985,0.5,0.6328113079071045,0.10535824298858643,0.06461300700902939,0.0,0.0,0.0,0.01107016485184431,-0.01107016485184431,0.03044295310974121,0.0,0.0,0.0,0.0,0.0,0.0,0.0,0.5994116088907993,0.02656544987278554,0.5,0.6525540351867676,0.6383295655250549,0.06582793593406677,0.0,0.0,0.0,0.020756559446454048,0.005535082425922155,-0.019372789189219475,0.0,0.0,0.0,0.0,0.0,0.0,0.0,0.49369228844226143,-0.3409808269282056,0.5
2.237,TAKEOFF,0.2320515215396881,0.27905213832855225,0.04084903001785278,0.0,0.0,0.0,0.006918853148818016,0.0027675412129610777,0.10516656935214996,0.0,0.0,0.0,0.0,0.0,0.0,0.0,0.5999739557902684,0.005590382221014278,0.5,0.6328113079071045,0.10535824298858643,0.06461300700902939,0.0,0.0,0.0,0.01107016485184431,-0.01107016485184431,0.03044295310974121,0.0,0.0,0.0,0.0,0.0,0.0,0.0,0.5994001181390248,0.02682346686994628,0.5,0.6525540351867676,0.6383295655250549,0.06582793593406677,0.0,0.0,0.0,0.020756559446454048,0.005535082425922155,-0.019372789189219475,0.0,0.0,0.0,0.0,0.0,0.0,0.0,0.49370937585767816,-0.34095608542775985,0.5
2.255,TAKEOFF,0.2320515215396881,0.27905213832855225,0.04084903001785278,0.0,0.0,0.0,0.006918853148818016,0.0027675412129610777,0.10516656935214996,0.0,0.0,0.0,0.0,0.0,0.0,0.0,0.5999738216053074,0.0056047647874572434,0.5,0.6328113079071045,0.10535824298858643,0.06461300700902939,0.0,0.0,0.0,0.01107016485184431,-0.01107016485184431,0.03044295310974121,0.0,0.0,0.0,0.0,0.0,0.0,0.0,0.5993885862658017,0.027079930839710113,0.5,0.6525540351867676,0.6383295655250549,0.06582793593406677,0.0,0.0,0.0,0.020756559446454048,0.005535082425922155,-0.019372789189219475,0.0,0.0,0.0,0.0,0.0,0.0,0.0,0.49372635951981353,-0.3409314915277141,0.5
2.275,TAKEOFF,0.23582422733306885,0.2773530185222626,0.051471538841724396,0.0,0.0,0.0,0.0013837706064805388,0.0027675412129610777,0.10655033588409424,0.0,0.0,0.0,0.0,0.0,0.0,0.0,0.5999736878837744,0.005619061055309685,0.5,0.6328113079071045,0.10535824298858643,0.06461300700902939,0.0,0.0,0.0,0.01107016485184431,-0.01107016485184431,0.03044295310974121,0.0,0.0,0.0,0.0,0.0,0.0,0.0,0.5993770148367802,0.02733485111263826,0.5,0.6525540351867676,0.6383295655250549,0.06582793593406677,0.0,0.0,0.0,0.020756559446454048,0.005535082425922155,-0.019372789189219475,0.0,0.0,0.0,0.0,0.0,0.0,0.0,0.4937432400658468,-0.3409070443526792,0.5
2.295,TAKEOFF,0.23582422733306885,0.2773530185222626,0.051471538841724396,0.0,0.0,0.0,0.0013837706064805388,0.0027675412129610777,0.10655033588409424,0.0,0.0,0.0,0.0,0.0,0.0,0.0,0.5999735546269765,0.005633271542393288,0.5,0.6328113079071045,0.10535824298858643,0.06461300700902939,0.0,0.0,0.0,0.01107016485184431,-0.01107016485184431,0.03044295310974121,0.0,0.0,0.0,0.0,0.0,0.0,0.0,0.5993672170219625,0.02754885041789749,0.5,0.6525540351867676,0.6383295655250549,0.06582793593406677,0.0,0.0,0.0,0.020756559446454048,0.005535082425922155,-0.019372789189219475,0.0,0.0,0.0,0.0,0.0,0.0,0.0,0.49376001812895937,-0.3408827430323948,0.5
2.315,TAKEOFF,0.23582422733306885,0.2773530185222626,0.051471538841724396,0.0,0.0,0.0,0.0013837706064805388,0.0027675412129610777,0.10655033588409424,0.0,0.0,0.0,0.0,0.0,0.0,0.0,0.599973359251905,0.005654041738844638,0.5,0.6377232670783997,0.10414666682481766,0.07712135463953018,0.0,0.0,0.0,0.006918853148818016,-0.00830262340605259,0.031826723366975784,0.0,0.0,0.0,0.0,0.0,0.0,0.0,0.5993574022748043,0.02776156224707935,0.5,0.6540796160697937,0.6421888470649719,0.07374238222837448,0.0,0.0,0.0,0.006918853148818016,-0.0027675412129610777,-0.03321049362421036,0.0,0.0,0.0,0.0,0.0,0.0,0.0,0.49377035840964223,-0.34086776491186926,0.5
2.335,TAKEOFF,0.23582422733306885,0.2773530185222626,0.051471538841724396,0.0,0.0,0.0,0.0013837706064805388,0.0027675412129610777,0.10655033588409424,0.0,0.0,0.0,0.0,0.0,0.0,0.0,0.5999731643365086,0.005674687307402148,0.5,0.6377232670783997,0.10414666682481766,0.07712135463953018,0.0,0.0,0.0,0.006918853148818016,-0.00830262340605259,0.031826723366975784,0.0,0.0,0.0,0.0,0.0,0.0,0.0,0.5993475716040295,0.02797299434012684,0.5,0.6540796160697937,0.6421888470649719,0.07374238222837448,0.0,0.0,0.0,0.006918853148818016,-0.0027675412129610777,-0.03321049362421036,0.0,0.0,0.0,0.0,0.0,0.0,0.0,0.4937806361983636,-0.34085287634922384,0.5
2.355,TAKEOFF,0.23582422733306885,0.2773530185222626,0.051471538841724396,0.0,0.0,0.0,0.0013837706064805388,0.0027675412129610777,0.10655033588409424,0.0,0.0,0.0,0.0,0.0,0.0,0.0,0.599972969886555,0.005695208995889295,0.5,0.6377232670783997,0.10414666682481766,0.07712135463953018,0.0,0.0,0.0,0.006918853148818016,-0.00830262340605259,0.031826723366975784,0.0,0.0,0.0,0.0,0.0,0.0,0.0,0.5993377260014441,0.0281831543908383,0.5,0.6540796160697937,0.6421888470649719,0.07374238222837448,0.0,0.0,0.0,0.006918853148818016,-0.0027675412129610777,-0.03321049362421036,0.0,0.0,0.0,0.0,0.0,0.0,0.0,0.493790851875453,-0.34083807681084344,0.5
2.375,TAKEOFF,0.24055874347686768,0.2760396897792816,0.06083652749657631,0.0,0.0,0.0,-0.009686394594609737,0.0013837706064805388,0.10378279536962509,0.0,0.0,0.0,0.0,0.0,0.0,0.0,0.5999727759076751,0.005715607547642376,0.5,0.6377232670783997,0.10414666682481766,0.07712135463953018,0.0,0.0,0.0,0.006918853148818016,-0.00830262340605259,0.031826723366975784,0.0,0.0,0.0,0.0,0.0,0.0,0.0,0.5993299388324194,0.028348270125854225,0.5,0.6540796160697937,0.6421888470649719,0.07374238222837448,0.0,0.0,0.0,0.006918853148818016,-0.0027675412129610777,-0.03321049362421036,0.0,0.0,0.0,0.0,0.0,0.0,0.0,0.49380100581889386,-0.3408233657662701,0.5
2.395,TAKEOFF,0.24055874347686768,0.2760396897792816,0.06083652749657631,0.0,0.0,0.0,-0.009686394594609737,0.0013837706064805388,0.10378279536962509,0.0,0.0,0.0,0.0,0.0,0.0,0.0,0.5999725824053649,0.005735883701537427,0.5,0.6377232670783997,0.10414666682481766,0.07712135463953018,0.0,0.0,0.0,0.006918853148818016,-0.00830262340605259,0.031826723366975784,0.0,0.0,0.0,0.0,0.0,0.0,0.0,0.5993221533061028,0.028512393034189183,0.5,0.6540796160697937,0.6421888470649719,0.07374238222837448,0.0,0.0,0.0,0.006918853148818016,-0.0027675412129610777,-0.03321049362421036,0.0,0.0,0.0,0.0,0.0,0.0,0.0,0.49381109840433846,-0.34080874268818395,0.5
2.415,TAKEOFF,0.24055874347686768,0.2760396897792816,0.06083652749657631,0.0,0.0,0.0,-0.009686394594609737,0.0013837706064805388,0.10378279536962509,0.0,0.0,0.0,0.0,0.0,0.0,0.0,0.5999723056436139,0.005764760245313709,0.5,0.641281247138977,0.10145065933465958,0.09052830189466476,0.0,0.0,0.0,-0.0,-0.006918853148818016,0.03459426388144493,0.0,0.0,0.0,0.0,0.0,0.0,0.0,0.5993143699525577,0.02867552908611633,0.5,0.6540610790252686,0.6452904343605042,0.08264283835887909,0.0,0.0,0.0,0.00830262340605259,0.005535082425922155,-0.045664429664611816,0.0,0.0,0.0,0.0,0.0,0.0,0.0,0.4938109439141576,-0.3408089665349324,0.5
2.435,TAKEOFF,0.24055874347686768,0.2760396897792816,0.06083652749657631,0.0,0.0,0.0,-0.009686394594609737,0.0013837706064805388,0.10378279536962509,0.0,0.0,0.0,0.0,0.0,0.0,0.0,0.5999720291650952,0.005793463516593483,0.5,0.641281247138977,0.10145065933465958,0.09052830189466476,0.0,0.0,0.0,-0.0,-0.006918853148818016,0.03459426388144493,0.0,0.0,0.0,0.0,0.0,0.0,0.0,0.5993065892922,0.028837684216146298,0.5,0.6540610790252686,0.6452904343605042,0.08264283835887909,0.0,0.0,0.0,0.00830262340605259,0.005535082425922155,-0.045664429664611816,0.0,0.0,0.0,0.0,0.0,0.0,0.0,0.49381079035081726,-0.34080918903853097,0.5
2.455,TAKEOFF,0.24055874347686768,0.2760396897792816,0.06083652749657631,0.0,0.0,0.0,-0.009686394594609737,0.0013837706064805388,0.10378279536962509,0.0,0.0,0.0,0.0,0.0,0.0,0.0,0.5999717529845887,0.00582199455510495,0.5,0.641281247138977,0.10145065933465958,0.09052830189466476,0.0,0.0,0.0,-0.0,-0.006918853148818016,0.03459426388144493,0.0,0.0,0.0,0.0,0.0,0.0,0.0,0.5992988118359341,0.02899886432323714,0.5,0.6540610790252686,0.6452904343605042,0.08264283835887909,0.0,0.0,0.0,0.00830262340605259,0.005535082425922155,-0.045664429664611816,0.0,0.0,0.0,0.0,0.0,0.0,0.0,0.49381063770875766,-0.3408094102070394,0.5
2.475,TAKEOFF,0.24520368874073029,0.2781961262226105,0.07054939866065979,0.0,0.0,0.0,0.006918853148818016,0.0013837706064805388,0.0982477143406868,0.0,0.0,0.0,0.0,0.0,0.0,0.0,0.599971477116588,0.005850354394337996,0.5,0.641281247138977,0.10145065933465958,0.09052830189466476,0.0,0.0,0.0,-0.0,-0.006918853148818016,0.03459426388144493,0.0,0.0,0.0,0.0,0.0,0.0,0.0,0.5992910380852862,0.02915907527100319,0.5,0.6540610790252686,0.6452904343605042,0.08264283835887909,0.0,0.0,0.0,0.00830262340605259,0.005535082425922155,-0.045664429664611816,0.0,0.0,0.0,0.0,0.0,0.0,0.0,0.49381048598245225,-0.3408096300484691,0.5
2.495,TAKEOFF,0.24520368874073029,0.2781961262226105,0.07054939866065979,0.0,0.0,0.0,0.006918853148818016,0.0013837706064805388,0.0982477143406868,0.0,0.0,0.0,0.0,0.0,0.0,0.0,0.5999712015753056,0.00587854406158159,0.5,0.641281247138977,0.10145065933465958,0.09052830189466476,0.0,0.0,0.0,-0.0,-0.006918853148818016,0.03459426388144493,0.0,0.0,0.0,0.0,0.0,0.0,0.0,0.5992842572629892,0.029298105685307246,0.5,0.6540610790252686,0.6452904343605042,0.08264283835887909,0.0,0.0,0.0,0.00830262340605259,0.005535082425922155,-0.045664429664611816,0.0,0.0,0.0,0.0,0.0,0.0,0.0,0.49381033516640765,-0.34080984857078317,0.5
2.515,TAKEOFF,0.24520368874073029,0.2781961262226105,0.07054939866065979,0.0,0.0,0.0,0.006918853148818016,0.0013837706064805388,0.0982477143406868,0.0,0.0,0.0,0.0,0.0,0.0,0.0,0.5999707826870069,0.005921141945636194,0.5,0.6434717774391174,0.09852846711874008,0.10486505925655365,0.0,0.0,0.0,-0.005535082425922155,-0.0027675412129610777,0.03874557837843895,0.0,0.0,0.0,0.0,0.0,0.0,0.0,0.5992774851614584,0.02943630035446028,0.5,0.6519327759742737,0.6484212279319763,0.09499960392713547,0.0,0.0,0.0,0.0013837706064805388,-0.005535082425922155,-0.05535082519054413,0.0,0.0,0.0,0.0,0.0,0.0,0.0,0.49380004322808824,-0.34082476040912607,0.5
2.535,TAKEOFF,0.24520368874073029,0.2781961262226105,0.07054939866065979,0.0,0.0,0.0,0.006918853148818016,0.0013837706064805388,0.0982477143406868,0.0,0.0,0.0,0.0,0.0,0.0,0.0,0.5999703633147587,0.005963484212806596,0.5,0.6434717774391174,0.09852846711874008,0.10486505925655365,0.0,0.0,0.0,-0.005535082425922155,-0.0027675412129610777,0.03874557837843895,0.0,0.0,0.0,0.0,0.0,0.0,0.0,0.5992707221111455,0.029573664304346107,0.5,0.6519327759742737,0.6484212279319763,0.09499960392713547,0.0,0.0,0.0,0.0013837706064805388,-0.005535082425922155,-0.05535082519054413,0.0,0.0,0.0,0.0,0.0,0.0,0.0,0.4937898125951431,-0.34083958246842955,0.5
2.555,TAKEOFF,0.24520368874073029,0.2781961262226105,0.07054939866065979,0.0,0.0,0.0,0.006918853148818016,0.0013837706064805388,0.0982477143406868,0.0,0.0,0.0,0.0,0.0,0.0,0.0,0.5999699434973265,0.006005572396938994,0.5,0.6434717774391174,0.09852846711874008,0.10486505925655365,0.0,0.0,0.0,-0.005535082425922155,-0.0027675412129610777,0.03874557837843895,0.0,0.0,0.0,0.0,0.0,0.0,0.0,0.5992639684359352,0.029710202530687083,0.5,0.6519327759742737,0.6484212279319763,0.09499960392713547,0.0,0.0,0.0,0.0013837706064805388,-0.005535082425922155,-0.05535082519054413,0.0,0.0,0.0,0.0,0.0,0.0,0.0,0.49377964290508813,-0.34085431529103993,0.5
2.577,TAKEOFF,0.25003737211227417,0.27839863300323486,0.07987110316753387,0.0,0.0,0.0,0.0,0.0027675412129610777,0.09271262586116791,0.0,0.0,0.0,0.0,0.0,0.0,0.0,0.5999695232728136,0.006047408022678513,0.5,0.6434717774391174,0.09852846711874008,0.10486505925655365,0.0,0.0,0.0,-0.005535082425922155,-0.0027675412129610777,0.03874557837843895,0.0,0.0,0.0,0.0,0.0,0.0,0.0,0.5992572244532393,0.029845919999222793,0.5,0.6519327759742737,0.6484212279319763,0.09499960392713547,0.0,0.0,0.0,0.0013837706064805388,-0.005535082425922155,-0.05535082519054413,0.0,0.0,0.0,0.0,0.0,0.0,0.0,0.49376953379754984,-0.34086895941600526,0.5
2.596,TAKEOFF,0.25003737211227417,0.27839863300323486,0.07987110316753387,0.0,0.0,0.0,0.0,0.0027675412129610777,0.09271262586116791,0.0,0.0,0.0,0.0,0.0,0.0,0.0,0.5999691026786711,0.006088992605524329,0.5,0.6434717774391174,0.09852846711874008,0.10486505925655365,0.0,0.0,0.0,-0.005535082425922155,-0.0027675412129610777,0.03874557837843895,0.0,0.0,0.0,0.0,0.0,0.0,0.0,0.5992521683701488,0.029947265378908867,0.5,0.6519327759742737,0.6484212279319763,0.09499960392713547,0.0,0.0,0.0,0.0013837706064805388,-0.005535082425922155,-0.05535082519054413,0.0,0.0,0.0,0.0,0.0,0.0,0.0,0.4937594849142539,-0.3408835153790964,0.5
2.616,TAKEOFF,0.25003737211227417,0.27839863300323486,0.07987110316753387,0.0,0.0,0.0,0.0,0.0027675412129610777,0.09271262586116791,0.0,0.0,0.0,0.0,0.0,0.0,0.0,0.5999686193450251,0.006136432287927522,0.5,0.6311891674995422,0.09244484454393387,0.09531432390213013,0.0,0.0,0.0,-0.006918853148818016,-0.004151311703026295,0.04428065940737724,0.0,0.0,0.0,0.0,0.0,0.0,0.0,0.5992471256381413,0.0300480018374867,0.5,0.6520092487335205,0.6507005095481873,0.10806034505367279,0.0,0.0,0.0,-0.009686394594609737,-0.0013837706064805388,-0.04428065940737724,0.0,0.0,0.0,0.0,0.0,0.0,0.0,0.4937361747950054,-0.34091727691449697,0.5
2.635,TAKEOFF,0.25003737211227417,0.27839863300323486,0.07987110316753387,0.0,0.0,0.0,0.0,0.0027675412129610777,0.09271262586116791,0.0,0.0,0.0,0.0,0.0,0.0,0.0,0.5999681351940074,0.0061835872942158756,0.5,0.6311891674995422,0.09244484454393387,0.09531432390213013,0.0,0.0,0.0,-0.006918853148818016,-0.004151311703026295,0.04428065940737724,0.0,0.0,0.0,0.0,0.0,0.0,0.0,0.5992420963804651,0.03014813303581715,0.5,0.6520092487335205,0.6507005095481873,0.10806034505367279,0.0,0.0,0.0,-0.009686394594609737,-0.0013837706064805388,-0.04428065940737724,0.0,0.0,0.0,0.0,0.0,0.0,0.0,0.4937130022487122,-0.3409508343010222,0.5
2.655,TAKEOFF,0.25003737211227417,0.27839863300323486,0.07987110316753387,0.0,0.0,0.0,0.0,0.0027675412129610777,0.09271262586116791,0.0,0.0,0.0,0.0,0.0,0.0,0.0,0.599967650275,0.006230459332612279,0.5,0.6311891674995422,0.09244484454393387,0.09531432390213013,0.0,0.0,0.0,-0.006918853148818016,-0.004151311703026295,0.04428065940737724,0.0,0.0,0.0,0.0,0.0,0.0,0.0,0.5992370807171938,0.030247662612758686,0.5,0.6520092487335205,0.6507005095481873,0.10806034505367279,0.0,0.0,0.0,-0.009686394594609737,-0.0013837706064805388,-0.04428065940737724,0.0,0.0,0.0,0.0,0.0,0.0,0.0,0.4936899664774133,-0.3409841887823107,0.5
2.675,TAKEOFF,0.2552059292793274,0.28053581714630127,0.08831422030925751,0.0,0.0,0.0,0.00830262340605259,-0.012453935109078884,0.08579377084970474,0.0,0.0,0.0,0.0,0.0,0.0,0.0,0.599967164636556,0.0062770501010934576,0.5,0.6311891674995422,0.09244484454393387,0.09531432390213013,0.0,0.0,0.0,-0.006918853148818016,-0.004151311703026295,0.04428065940737724,0.0,0.0,0.0,0.0,0.0,0.0,0.0,0.5992320787652751,0.030346594185298906,0.5,0.6520092487335205,0.6507005095481873,0.10806034505367279,0.0,0.0,0.0,-0.009686394594609737,-0.0013837706064805388,-0.04428065940737724,0.0,0.0,0.0,0.0,0.0,0.0,0.0,0.49366706668760507,-0.3410173415943178,0.5
2.695,TAKEOFF,0.2552059292793274,0.28053581714630127,0.08831422030925751,0.0,0.0,0.0,0.00830262340605259,-0.012453935109078884,0.08579377084970474,0.0,0.0,0.0,0.0,0.0,0.0,0.0,0.599966678326412,0.006323361287451328,0.5,0.6311891674995422,0.09244484454393387,0.09531432390213013,0.0,0.0,0.0,-0.006918853148818016,-0.004151311703026295,0.04428065940737724,0.0,0.0,0.0,0.0,0.0,0.0,0.0,0.599228254517318,0.030422014859775273,0.5,0.6520092487335205,0.6507005095481873,0.10806034505367279,0.0,0.0,0.0,-0.009686394594609737,-0.0013837706064805388,-0.04428065940737724,0.0,0.0,0.0,0.0,0.0,0.0,0.0,0.4936443020902181,-0.3410502939653644,0.5
2.715,TAKEOFF,0.2552059292793274,0.28053581714630127,0.08831422030925751,0.0,0.0,0.0,0.00830262340605259,-0.012453935109078884,0.08579377084970474,0.0,0.0,0.0,0.0,0.0,0.0,0.0,0.5999660089267909,0.00638655873361087,0.5,0.6311891674995422,0.09244484454393387,0.09531432390213013,0.0,0.0,0.0,-0.006918853148818016,-0.004151311703026295,0.04428065940737724,0.0,0.0,0.0,0.0,0.0,0.0,0.0,0.5992244438074984,0.030496982532608602,0.5,0.650401771068573,0.6553158164024353,0.12046293169260025,0.0,0.0,0.0,0.00830262340605259,-0.005535082425922155,-0.020756559446454048,0.0,0.0,0.0,0.0,0.0,0.0,0.0,0.4936216719005948,-0.34108304711618476,0.5
2.735,TAKEOFF,0.2552059292793274,0.28053581714630127,0.08831422030925751,0.0,0.0,0.0,0.00830262340605259,-0.012453935109078884,0.08579377084970474,0.0,0.0,0.0,0.0,0.0,0.0,0.0,0.5999653369464614,0.006449376924869522,0.5,0.629351794719696,0.09199012815952301,0.10639992356300354,0.0,0.0,0.0,-0.012453935109078884,0.01107016485184431,0.04704819992184639,0.0,0.0,0.0,0.0,0.0,0.0,0.0,0.599220646667196,0.03057149992635984,0.5,0.650401771068573,0.6553158164024353,0.12046293169260025,0.0,0.0,0.0,0.00830262340605259,-0.005535082425922155,-0.020756559446454048,0.0,0.0,0.0,0.0,0.0,0.0,0.0,0.49359858436595233,-0.34111645740410684,0.5
2.755,TAKEOFF,0.2552059292793274,0.28053581714630127,0.08831422030925751,0.0,0.0,0.0,0.00830262340605259,-0.012453935109078884,0.08579377084970474,0.0,0.0,0.0,0.0,0.0,0.0,0.0,0.5999646624798428,0.006511818136914371,0.5,0.629351794719696,0.09199012815952301,0.10639992356300354,0.0,0.0,0.0,-0.012453935109078884,0.01107016485184431,0.04704819992184639,0.0,0.0,0.0,0.0,0.0,0.0,0.0,0.5992168631262543,0.03064556974722096,0.5,0.650401771068573,0.6553158164024353,0.12046293169260025,0.0,0.0,0.0,0.00830262340605259,-0.005535082425922155,-0.020756559446454048,0.0,0.0,0.0,0.0,0.0,0.0,0.0,0.493575633115487,-0.34114966568156874,0.5
2.775,TAKEOFF,0.2592991292476654,0.28071868419647217,0.09847120195627213,0.0,0.0,0.0,0.006918853148818016,-0.0013837706064805388,0.08025868982076645,0.0,0.0,0.0,0.0,0.0,0.0,0.0,0.5999639856198437,0.006573884631788702,0.5,0.629351794719696,0.09199012815952301,0.10639992356300354,0.0,0.0,0.0,-0.012453935109078884,0.01107016485184431,0.04704819992184639,0.0,0.0,0.0,0.0,0.0,0.0,0.0,0.5992130932130055,0.030719194685113152,0.5,0.650401771068573,0.6553158164024353,0.12046293169260025,0.0,0.0,0.0,0.00830262340605259,-0.005535082425922155,-0.020756559446454048,0.0,0.0,0.0,0.0,0.0,0.0,0.0,0.4935528173584085,-0.34118267317901335,0.5
2.795,TAKEOFF,0.2592991292476654,0.28071868419647217,0.09847120195627213,0.0,0.0,0.0,0.006918853148818016,-0.0013837706064805388,0.08025868982076645,0.0,0.0,0.0,0.0,0.0,0.0,0.0,0.5999633064578814,0.006635578657973525,0.5,0.629351794719696,0.09199012815952301,0.10639992356300354,0.0,0.0,0.0,-0.012453935109078884,0.01107016485184431,0.04704819992184639,0.0,0.0,0.0,0.0,0.0,0.0,0.0,0.5992107406664761,0.030765049486928663,0.5,0.650401771068573,0.6553158164024353,0.12046293169260025,0.0,0.0,0.0,0.00830262340605259,-0.005535082425922155,-0.020756559446454048,0.0,0.0,0.0,0.0,0.0,0.0,0.0,0.49353013630834724,-0.34121548111928357,0.5
2.815,TAKEOFF,0.2592991292476654,0.28071868419647217,0.09847120195627213,0.0,0.0,0.0,0.006918853148818016,-0.0013837706064805388,0.08025868982076645,0.0,0.0,0.0,0.0,0.0,0.0,0.0,0.5999626250839037,0.006696902450468614,0.5,0.6309075355529785,0.09296563267707825,0.12067333608865738,0.0,0.0,0.0,-0.006918853148818016,0.013837706297636032,0.04843197017908096,0.0,0.0,0.0,0.0,0.0,0.0,0.0,0.5992083987577036,0.030810628981388716,0.5,0.6467915773391724,0.6594045162200928,0.13211868703365326,0.0,0.0,0.0,0.03044295310974121,-0.017989017069339752,0.009686394594609737,0.0,0.0,0.0,0.0,0.0,0.0,0.0,0.49350758918333204,-0.34124809071767065,0.5
2.835,TAKEOFF,0.2592991292476654,0.28071868419647217,0.09847120195627213,0.0,0.0,0.0,0.006918853148818016,-0.0013837706064805388,0.08025868982076645,0.0,0.0,0.0,0.0,0.0,0.0,0.0,0.5999617022884993,0.006779069780291671,0.5,0.6309075355529785,0.09296563267707825,0.12067333608865738,0.0,0.0,0.0,-0.006918853148818016,0.013837706297636032,0.04843197017908096,0.0,0.0,0.0,0.0,0.0,0.0,0.0,0.5992060674644804,0.030855934822212196,0.5,0.6467915773391724,0.6594045162200928,0.13211868703365326,0.0,0.0,0.0,0.03044295310974121,-0.017989017069339752,0.009686394594609737,0.0,0.0,0.0,0.0,0.0,0.0,0.0,0.49348755206828565,-0.3412770662579761,0.5
2.855,TAKEOFF,0.2592991292476654,0.28071868419647217,0.09847120195627213,0.0,0.0,0.0,0.006918853148818016,-0.0013837706064805388,0.08025868982076645,0.0,0.0,0.0,0.0,0.0,0.0,0.0,0.599960773877792,0.006860743980129639,0.5,0.6309075355529785,0.09296563267707825,0.12067333608865738,0.0,0.0,0.0,-0.006918853148818016,0.013837706297636032,0.04843197017908096,0.0,0.0,0.0,0.0,0.0,0.0,0.0,0.5992037467642332,0.030900968653177915,0.5,0.6467915773391724,0.6594045162200928,0.13211868703365326,0.0,0.0,0.0,0.03044295310974121,-0.017989017069339752,0.009686394594609737,0.0,0.0,0.0,0.0,0.0,0.0,0.0,0.4934676334899557,-0.34130586677908525,0.5
2.875,TAKEOFF,0.26263803243637085,0.27988961338996887,0.10981176793575287,0.0,0.0,0.0,0.009686394594609737,-0.0027675412129610777,0.07472360879182816,0.0,0.0,0.0,0.0,0.0,0.0,0.0,0.5999598400189141,0.006941928008769956,0.5,0.6309075355529785,0.09296563267707825,0.12067333608865738,0.0,0.0,0.0,-0.006918853148818016,0.013837706297636032,0.04843197017908096,0.0,0.0,0.0,0.0,0.0,0.0,0.0,0.5992014366340325,0.030945732108184403,0.5,0.6467915773391724,0.6594045162200928,0.13211868703365326,0.0,0.0,0.0,0.03044295310974121,-0.017989017069339752,0.009686394594609737,0.0,0.0,0.0,0.0,0.0,0.0,0.0,0.49344783275736015,-0.34133449334496546,0.5
2.895,TAKEOFF,0.26263803243637085,0.27988961338996887,0.10981176793575287,0.0,0.0,0.0,0.009686394594609737,-0.0027675412129610777,0.07472360879182816,0.0,0.0,0.0,0.0,0.0,0.0,0.0,0.5999589008763986,0.007022624807274081,0.5,0.6309075355529785,0.09296563267707825,0.12067333608865738,0.0,0.0,0.0,-0.006918853148818016,0.013837706297636032,0.04843197017908096,0.0,0.0,0.0,0.0,0.0,0.0,0.0,0.5992005971281997,0.030961983160141315,0.5,0.6467915773391724,0.6594045162200928,0.13211868703365326,0.0,0.0,0.0,0.03044295310974121,-0.017989017069339752,0.009686394594609737,0.0,0.0,0.0,0.0,0.0,0.0,0.0,0.49342814918341954,-0.3413629470130363,0.5
2.915,TAKEOFF,0.26263803243637085,0.27988961338996887,0.10981176793575287,0.0,0.0,0.0,0.009686394594609737,-0.0027675412129610777,0.07472360879182816,0.0,0.0,0.0,0.0,0.0,0.0,0.0,0.5999578292991747,0.007113582966573287,0.5,0.6340509653091431,0.09527451545000076,0.13845396041870117,0.0,0.0,0.0,-0.005535082425922155,0.006918853148818016,0.04843197017908096,0.0,0.0,0.0,0.0,0.0,0.0,0.0,0.599199762222613,0.030978136683216695,0.5,0.6414479613304138,0.6578736305236816,0.1453300565481186,0.0,0.0,0.0,0.029059182852506638,0.005535082425922155,0.03736180439591408,0.0,0.0,0.0,0.0,0.0,0.0,0.0,0.4934144154736824,-0.341382797754609,0.5
2.935,TAKEOFF,0.26263803243637085,0.27988961338996887,0.10981176793575287,0.0,0.0,0.0,0.009686394594609737,-0.0027675412129610777,0.07472360879182816,0.0,0.0,0.0,0.0,0.0,0.0,0.0,0.5999567504853528,0.007203995214885016,0.5,0.6340509653091431,0.09527451545000076,0.13845396041870117,0.0,0.0,0.0,-0.005535082425922155,0.006918853148818016,0.04843197017908096,0.0,0.0,0.0,0.0,0.0,0.0,0.0,0.5991989318948971,0.03099419326284221,0.5,0.6414479613304138,0.6578736305236816,0.1453300565481186,0.0,0.0,0.0,0.029059182852506638,0.005535082425922155,0.03736180439591408,0.0,0.0,0.0,0.0,0.0,0.0,0.0,0.49340076337477623,-0.3414025288441608,0.5
2.955,TAKEOFF,0.26263803243637085,0.27988961338996887,0.10981176793575287,0.0,0.0,0.0,0.009686394594609737,-0.0027675412129610777,0.07472360879182816,0.0,0.0,0.0,0.0,0.0,0.0,0.0,0.5999556646418774,0.007293864827578915,0.5,0.6340509653091431,0.09527451545000076,0.13845396041870117,0.0,0.0,0.0,-0.005535082425922155,0.006918853148818016,0.04843197017908096,0.0,0.0,0.0,0.0,0.0,0.0,0.0,0.5991981061227488,0.031010153480934062,0.5,0.6414479613304138,0.6578736305236816,0.1453300565481186,0.0,0.0,0.0,0.029059182852506638,0.005535082425922155,0.03736180439591408,0.0,0.0,0.0,0.0,0.0,0.0,0.0,0.4933871924065263,-0.3414221410061236,0.5
2.975,TAKEOFF,0.2647804915904999,0.27692416310310364,0.12286587804555893,0.0,0.0,0.0,0.006918853148818016,-0.00830262340605259,0.07195606827735901,0.0,0.0,0.0,0.0,0.0,0.0,0.0,0.5999545719724951,0.007383195060409969,0.5,0.6340509653091431,0.09527451545000076,0.13845396041870117,0.0,0.0,0.0,-0.005535082425922155,0.006918853148818016,0.04843197017908096,0.0,0.0,0.0,0.0,0.0,0.0,0.0,0.5991990289743366,0.03099231640604069,0.5,0.6414479613304138,0.6578736305236816,0.1453300565481186,0.0,0.0,0.0,0.029059182852506638,0.005535082425922155,0.03736180439591408,0.0,0.0,0.0,0.0,0.0,0.0,0.0,0.4933737020915251,-0.34144163496050545,0.5
2.995,TAKEOFF,0.2647804915904999,0.27692416310310364,0.12286587804555893,0.0,0.0,0.0,0.006918853148818016,-0.00830262340605259,0.07195606827735901,0.0,0.0,0.0,0.0,0.0,0.0,0.0,0.5999534726777966,0.007471989149635099,0.5,0.6340509653091431,0.09527451545000076,0.13845396041870117,0.0,0.0,0.0,-0.005535082425922155,0.006918853148818016,0.04843197017908096,0.0,0.0,0.0,0.0,0.0,0.0,0.0,0.5991999457626057,0.030974586326379575,0.5,0.6414479613304138,0.6578736305236816,0.1453300565481186,0.0,0.0,0.0,0.029059182852506638,0.005535082425922155,0.03736180439591408,0.0,0.0,0.0,0.0,0.0,0.0,0.0,0.49336029195511666,-0.3414610114229178,0.5
3.015,TAKEOFF,0.2647804915904999,0.27692416310310364,0.12286587804555893,0.0,0.0,0.0,0.006918853148818016,-0.00830262340605259,0.07195606827735901,0.0,0.0,0.0,0.0,0.0,0.0,0.0,0.5999522288623319,0.0075712009034274485,0.5,0.6377518177032471,0.09910458326339722,0.15790939331054688,0.0,0.0,0.0,-0.004151311703026295,0.005535082425922155,0.045664429664611816,0.0,0.0,0.0,0.0,0.0,0.0,0.0,0.5992008565302309,0.030956962600320343,0.5,0.6357091069221497,0.6559683084487915,0.1635095626115799,0.0,0.0,0.0,-0.004151311703026295,0.006918853148818016,0.04289688542485237,0.0,0.0,0.0,0.0,0.0,0.0,0.0,0.49335723936570663,-0.34146542191772333,0.5
3.035,TAKEOFF,0.2647804915904999,0.27692416310310364,0.12286587804555893,0.0,0.0,0.0,0.006918853148818016,-0.00830262340605259,0.07195606827735901,0.0,0.0,0.0,0.0,0.0,0.0,0.0,0.599950976250895,0.007669817181520865,0.5,0.6377518177032471,0.09910458326339722,0.15790939331054688,0.0,0.0,0.0,-0.004151311703026295,0.005535082425922155,0.045664429664611816,0.0,0.0,0.0,0.0,0.0,0.0,0.0,0.5992017613195554,0.030939444590078025,0.5,0.6357091069221497,0.6559683084487915,0.1635095626115799,0.0,0.0,0.0,-0.004151311703026295,0.006918853148818016,0.04289688542485237,0.0,0.0,0.0,0.0,0.0,0.0,0.0,0.4933542050527586,-0.3414698059225158,0.5
3.055,TAKEOFF,0.2647804915904999,0.27692416310310364,0.12286587804555893,0.0,0.0,0.0,0.006918853148818016,-0.00830262340605259,0.07195606827735901,0.0,0.0,0.0,0.0,0.0,0.0,0.0,0.5999497150908164,0.007767841556583684,0.5,0.6377518177032471,0.09910458326339722,0.15790939331054688,0.0,0.0,0.0,-0.004151311703026295,0.005535082425922155,0.045664429664611816,0.0,0.0,0.0,0.0,0.0,0.0,0.0,0.5992026601725942,0.030922031661690087,0.5,0.6357091069221497,0.6559683084487915,0.1635095626115799,0.0,0.0,0.0,-0.004151311703026295,0.006918853148818016,0.04289688542485237,0.0,0.0,0.0,0.0,0.0,0.0,0.0,0.4933511889070816,-0.3414741635965583,0.5
3.075,TAKEOFF,0.2656635642051697,0.2750293016433716,0.13652314245700836,0.0,0.0,0.0,-0.02214032970368862,-0.019372789189219475,0.07887492328882217,0.0,0.0,0.0,0.0,0.0,0.0,0.0,0.5999484456256147,0.007865277579897707,0.5,0.6377518177032471,0.09910458326339722,0.15790939331054688,0.0,0.0,0.0,-0.004151311703026295,0.005535082425922155,0.045664429664611816,0.0,0.0,0.0,0.0,0.0,0.0,0.0,0.5992035531310366,0.030904723184993516,0.5,0.6357091069221497,0.6559683084487915,0.1635095626115799,0.0,0.0,0.0,-0.004151311703026295,0.006918853148818016,0.04289688542485237,0.0,0.0,0.0,0.0,0.0,0.0,0.0,0.4933481908201342,-0.3414784950981547,0.5
3.095,TAKEOFF,0.2656635642051697,0.2750293016433716,0.13652314245700836,0.0,0.0,0.0,-0.02214032970368862,-0.019372789189219475,0.07887492328882217,0.0,0.0,0.0,0.0,0.0,0.0,0.0,0.5999471680950473,0.00796212878148508,0.5,0.6377518177032471,0.09910458326339722,0.15790939331054688,0.0,0.0,0.0,-0.004151311703026295,0.005535082425922155,0.045664429664611816,0.0,0.0,0.0,0.0,0.0,0.0,0.0,0.5992053839577959,0.030869205302215895,0.5,0.6357091069221497,0.6559683084487915,0.1635095626115799,0.0,0.0,0.0,-0.004151311703026295,0.006918853148818016,0.04289688542485237,0.0,0.0,0.0,0.0,0.0,0.0,0.0,0.4933452106840205,-0.3414828005846552,0.5
3.115,TAKEOFF,0.2656635642051697,0.2750293016433716,0.13652314245700836,0.0,0.0,0.0,-0.02214032970368862,-0.019372789189219475,0.07887492328882217,0.0,0.0,0.0,0.0,0.0,0.0,0.0,0.599945882735161,0.008058398670234453,0.5,0.6429910659790039,0.10230626910924911,0.17723087966442108,0.0,0.0,0.0,0.004151311703026295,-0.004151311703026295,0.041513118892908096,0.0,0.0,0.0,0.0,0.0,0.0,0.0,0.5992072017131769,0.03083390041924891,0.5,0.6338331699371338,0.651968777179718,0.18747951090335846,0.0,0.0,0.0,0.004151311703026295,0.02214032970368862,0.03321049362421036,0.0,0.0,0.0,0.0,0.0,0.0,0.0,0.4933422483914867,-0.3414870802124622,0.5
3.135,TAKEOFF,0.2656635642051697,0.2750293016433716,0.13652314245700836,0.0,0.0,0.0,-0.02214032970368862,-0.019372789189219475,0.07887492328882217,0.0,0.0,0.0,0.0,0.0,0.0,0.0,0.5999446670302208,0.00814840487442349,0.5,0.6429910659790039,0.10230626910924911,0.17723087966442108,0.0,0.0,0.0,0.004151311703026295,-0.004151311703026295,0.041513118892908096,0.0,0.0,0.0,0.0,0.0,0.0,0.0,0.5992090065005633,0.030798807259501116,0.5,0.6338331699371338,0.651968777179718,0.18747951090335846,0.0,0.0,0.0,0.004151311703026295,0.02214032970368862,0.03321049362421036,0.0,0.0,0.0,0.0,0.0,0.0,0.0,0.4933467281703612,-0.34148060823947196,0.5
3.155,TAKEOFF,0.2656635642051697,0.2750293016433716,0.13652314245700836,0.0,0.0,0.0,-0.02214032970368862,-0.019372789189219475,0.07887492328882217,0.0,0.0,0.0,0.0,0.0,0.0,0.0,0.5999434452377156,0.008237870859640844,0.5,0.6429910659790039,0.10230626910924911,0.17723087966442108,0.0,0.0,0.0,0.004151311703026295,-0.004151311703026295,0.041513118892908096,0.0,0.0,0.0,0.0,0.0,0.0,0.0,0.5992107984224203,0.03076392455402161,0.5,0.6338331699371338,0.651968777179718,0.18747951090335846,0.0,0.0,0.0,0.004151311703026295,0.02214032970368862,0.03321049362421036,0.0,0.0,0.0,0.0,0.0,0.0,0.0,0.49335118098642167,-0.34147417504007965,0.5
3.175,TAKEOFF,0.2630496621131897,0.2765662372112274,0.15301010012626648,0.0,0.0,0.0,-0.012453935109078884,-0.00830262340605259,0.09409639984369278,0.0,0.0,0.0,0.0,0.0,0.0,0.0,0.5999422175542977,0.008326799867403076,0.5,0.6429910659790039,0.10230626910924911,0.17723087966442108,0.0,0.0,0.0,0.004151311703026295,-0.004151311703026295,0.041513118892908096,0.0,0.0,0.0,0.0,0.0,0.0,0.0,0.5992125775803036,0.030729251041454454,0.5,0.6338331699371338,0.651968777179718,0.18747951090335846,0.0,0.0,0.0,0.004151311703026295,0.02214032970368862,0.03321049362421036,0.0,0.0,0.0,0.0,0.0,0.0,0.0,0.49335560700245085,-0.3414677803823418,0.5
3.195,TAKEOFF,0.2630496621131897,0.2765662372112274,0.15301010012626648,0.0,0.0,0.0,-0.012453935109078884,-0.00830262340605259,0.09409639984369278,0.0,0.0,0.0,0.0,0.0,0.0,0.0,0.5999409841735232,0.008415195119810492,0.5,0.6429910659790039,0.10230626910924911,0.17723087966442108,0.0,0.0,0.0,0.004151311703026295,-0.004151311703026295,0.041513118892908096,0.0,0.0,0.0,0.0,0.0,0.0,0.0,0.5992129210460768,0.030722552814309932,0.5,0.6338331699371338,0.651968777179718,0.18747951090335846,0.0,0.0,0.0,0.004151311703026295,0.02214032970368862,0.03321049362421036,0.0,0.0,0.0,0.0,0.0,0.0,0.0,0.4933600063802429,-0.34146142403569785,0.5
3.215,TAKEOFF,0.2630496621131897,0.2765662372112274,0.15301010012626648,0.0,0.0,0.0,-0.012453935109078884,-0.00830262340605259,0.09409639984369278,0.0,0.0,0.0,0.0,0.0,0.0,0.0,0.5999399159067416,0.008491013002688067,0.5,0.6469820737838745,0.10559326410293579,0.198678120970726,0.0,0.0,0.0,0.0027675412129610777,-0.004151311703026295,0.03874557837843895,0.0,0.0,0.0,0.0,0.0,0.0,0.0,0.5992132623768527,0.030715894772723788,0.5,0.6387373805046082,0.652629017829895,0.21397115290164948,0.0,0.0,0.0,0.012453935109078884,0.0013837706064805388,0.024907870218157768,0.0,0.0,0.0,0.0,0.0,0.0,0.0,0.49337256430770043,-0.3414432790207532,0.5
3.235,TAKEOFF,0.2630496621131897,0.2765662372112274,0.15301010012626648,0.0,0.0,0.0,-0.012453935109078884,-0.00830262340605259,0.09409639984369278,0.0,0.0,0.0,0.0,0.0,0.0,0.0,0.599938844554094,0.008566375843880432,0.5,0.6469820737838745,0.10559326410293579,0.198678120970726,0.0,0.0,0.0,0.0027675412129610777,-0.004151311703026295,0.03874557837843895,0.0,0.0,0.0,0.0,0.0,0.0,0.0,0.5992136015863289,0.030709276675629,0.5,0.6387373805046082,0.652629017829895,0.21397115290164948,0.0,0.0,0.0,0.012453935109078884,0.0013837706064805388,0.024907870218157768,0.0,0.0,0.0,0.0,0.0,0.0,0.0,0.4933850462262419,-0.34142524241820366,0.5
3.255,TAKEOFF,0.2630496621131897,0.2765662372112274,0.15301010012626648,0.0,0.0,0.0,-0.012453935109078884,-0.00830262340605259,0.09409639984369278,0.0,0.0,0.0,0.0,0.0,0.0,0.0,0.599937770247716,0.008641286374066977,0.5,0.6469820737838745,0.10559326410293579,0.198678120970726,0.0,0.0,0.0,0.0027675412129610777,-0.004151311703026295,0.03874557837843895,0.0,0.0,0.0,0.0,0.0,0.0,0.0,0.5992139386881101,0.03070269828340438,0.5,0.6387373805046082,0.652629017829895,0.21397115290164948,0.0,0.0,0.0,0.012453935109078884,0.0013837706064805388,0.024907870218157768,0.0,0.0,0.0,0.0,0.0,0.0,0.0,0.49339745259981665,-0.34140731358307425,0.5
3.275,TAKEOFF,0.2601016163825989,0.2819133996963501,0.1732904613018036,0.0,0.0,0.0,0.00830262340605259,0.015221476554870605,0.09409639984369278,0.0,0.0,0.0,0.0,0.0,0.0,0.0,0.5999366931175911,0.008715747307558969,0.5,0.6469820737838745,0.10559326410293579,0.198678120970726,0.0,0.0,0.0,0.0027675412129610777,-0.004151311703026295,0.03874557837843895,0.0,0.0,0.0,0.0,0.0,0.0,0.0,0.5992114759481987,0.030750725064318814,0.5,0.6387373805046082,0.652629017829895,0.21397115290164948,0.0,0.0,0.0,0.012453935109078884,0.0013837706064805388,0.024907870218157768,0.0,0.0,0.0,0.0,0.0,0.0,0.0,0.49340978388949625,-0.3413894918741943,0.5
3.295,TAKEOFF,0.2601016163825989,0.2819133996963501,0.1732904613018036,0.0,0.0,0.0,0.00830262340605259,0.015221476554870605,0.09409639984369278,0.0,0.0,0.0,0.0,0.0,0.0,0.0,0.5999356132915795,0.008789761342397194,0.5,0.6469820737838745,0.10559326410293579,0.198678120970726,0.0,0.0,0.0,0.0027675412129610777,-0.004151311703026295,0.03874557837843895,0.0,0.0,0.0,0.0,0.0,0.0,0.0,0.5992090241699721,0.030798463488780313,0.5,0.6387373805046082,0.652629017829895,0.21397115290164948,0.0,0.0,0.0,0.012453935109078884,0.0013837706064805388,0.024907870218157768,0.0,0.0,0.0,0.0,0.0,0.0,0.0,0.4934220405534926,-0.34137177665417434,0.5
3.315,TAKEOFF,0.2601016163825989,0.2819133996963501,0.1732904613018036,0.0,0.0,0.0,0.00830262340605259,0.015221476554870605,0.09409639984369278,0.0,0.0,0.0,0.0,0.0,0.0,0.0,0.5999345308954471,0.00886333116044902,0.5,0.6487404704093933,0.10787344723939896,0.21919971704483032,0.0,0.0,0.0,0.004151311703026295,-0.00830262340605259,0.03736180439591408,0.0,0.0,0.0,0.0,0.0,0.0,0.0,0.5992065833333157,0.030845915288969475,0.5,0.6419007182121277,0.6509509086608887,0.23824137449264526,0.0,0.0,0.0,0.006918853148818016,0.0027675412129610777,0.03874557837843895,0.0,0.0,0.0,0.0,0.0,0.0,0.0,0.4934342230471766,-0.3413541672893846,0.5
3.335,TAKEOFF,0.2601016163825989,0.2819133996963501,0.1732904613018036,0.0,0.0,0.0,0.00830262340605259,0.015221476554870605,0.09409639984369278,0.0,0.0,0.0,0.0,0.0,0.0,0.0,0.5999336473375144,0.008922936305211532,0.5,0.6487404704093933,0.10787344723939896,0.21919971704483032,0.0,0.0,0.0,0.004151311703026295,-0.00830262340605259,0.03736180439591408,0.0,0.0,0.0,0.0,0.0,0.0,0.0,0.5992041534176883,0.030893082186654753,0.5,0.6419007182121277,0.6509509086608887,0.23824137449264526,0.0,0.0,0.0,0.006918853148818016,0.0027675412129610777,0.03874557837843895,0.0,0.0,0.0,0.0,0.0,0.0,0.0,0.4934524578296336,-0.3413278070446263,0.5
3.355,TAKEOFF,0.2601016163825989,0.2819133996963501,0.1732904613018036,0.0,0.0,0.0,0.00830262340605259,0.015221476554870605,0.09409639984369278,0.0,0.0,0.0,0.0,0.0,0.0,0.0,0.5999327632121851,0.008982183731819601,0.5,0.6487404704093933,0.10787344723939896,0.21919971704483032,0.0,0.0,0.0,0.004151311703026295,-0.00830262340605259,0.03736180439591408,0.0,0.0,0.0,0.0,0.0,0.0,0.0,0.5992017344021329,0.030939965893255077,0.5,0.6419007182121277,0.6509509086608887,0.23824137449264526,0.0,0.0,0.0,0.006918853148818016,0.0027675412129610777,0.03874557837843895,0.0,0.0,0.0,0.0,0.0,0.0,0.0,0.4934705818078275,-0.34130160399600257,0.5
3.375,TAKEOFF,0.25939682126045227,0.28545522689819336,0.19497136771678925,0.0,0.0,0.0,0.02629164233803749,0.012453935109078884,0.08717754483222961,0.0,0.0,0.0,0.0,0.0,0.0,0.0,0.5999318785930858,0.00904107558705379,0.5,0.6487404704093933,0.10787344723939896,0.21919971704483032,0.0,0.0,0.0,0.004151311703026295,-0.00830262340605259,0.03736180439591408,0.0,0.0,0.0,0.0,0.0,0.0,0.0,0.5991993262652842,0.03098656810990206,0.5,0.6419007182121277,0.6509509086608887,0.23824137449264526,0.0,0.0,0.0,0.006918853148818016,0.0027675412129610777,0.03874557837843895,0.0,0.0,0.0,0.0,0.0,0.0,0.0,0.49348859566322983,-0.3412755572119592,0.5
3.395,TAKEOFF,0.25939682126045227,0.28545522689819336,0.19497136771678925,0.0,0.0,0.0,0.02629164233803749,0.012453935109078884,0.08717754483222961,0.0,0.0,0.0,0.0,0.0,0.0,0.0,0.5999309935525613,0.00909961400481858,0.5,0.6487404704093933,0.10787344723939896,0.21919971704483032,0.0,0.0,0.0,0.004151311703026295,-0.00830262340605259,0.03736180439591408,0.0,0.0,0.0,0.0,0.0,0.0,0.0,0.5991955188850947,0.031060105409063635,0.5,0.6419007182121277,0.6509509086608887,0.23824137449264526,0.0,0.0,0.0,0.006918853148818016,0.0027675412129610777,0.03874557837843895,0.0,0.0,0.0,0.0,0.0,0.0,0.0,0.493506500073025,-0.34124966576639065,0.5
3.415,TAKEOFF,0.25939682126045227,0.28545522689819336,0.19497136771678925,0.0,0.0,0.0,0.02629164233803749,0.012453935109078884,0.08717754483222961,0.0,0.0,0.0,0.0,0.0,0.0,0.0,0.599930374010162,0.009140368703017748,0.5,0.6526039242744446,0.10745155811309814,0.23909881711006165,0.0,0.0,0.0,0.006918853148818016,-0.004151311703026295,0.03736180439591408,0.0,0.0,0.0,0.0,0.0,0.0,0.0,0.5991917254053142,0.03113320102081481,0.5,0.6455005407333374,0.6482914686203003,0.26182758808135986,0.0,0.0,0.0,0.019372789189219475,-0.01660524681210518,0.0567345917224884,0.0,0.0,0.0,0.0,0.0,0.0,0.0,0.4935210457261879,-0.34122862925805325,0.5
3.435,TAKEOFF,0.25939682126045227,0.28545522689819336,0.19497136771678925,0.0,0.0,0.0,0.02629164233803749,0.012453935109078884,0.08717754483222961,0.0,0.0,0.0,0.0,0.0,0.0,0.0,0.5999297554413237,0.009180878831225958,0.5,0.6526039242744446,0.10745155811309814,0.23909881711006165,0.0,0.0,0.0,0.006918853148818016,-0.004151311703026295,0.03736180439591408,0.0,0.0,0.0,0.0,0.0,0.0,0.0,0.5991879458496008,0.031205857599748716,0.5,0.6455005407333374,0.6482914686203003,0.26182758808135986,0.0,0.0,0.0,0.019372789189219475,-0.01660524681210518,0.0567345917224884,0.0,0.0,0.0,0.0,0.0,0.0,0.0,0.49353550321677114,-0.34120771835433106,0.5
3.455,TAKEOFF,0.25939682126045227,0.28545522689819336,0.19497136771678925,0.0,0.0,0.0,0.02629164233803749,0.012453935109078884,0.08717754483222961,0.0,0.0,0.0,0.0,0.0,0.0,0.0,0.5999291378730329,0.00922114585718022,0.5,0.6526039242744446,0.10745155811309814,0.23909881711006165,0.0,0.0,0.0,0.006918853148818016,-0.004151311703026295,0.03736180439591408,0.0,0.0,0.0,0.0,0.0,0.0,0.0,0.5991841802401887,0.03127807778449677,0.5,0.6455005407333374,0.6482914686203003,0.26182758808135986,0.0,0.0,0.0,0.019372789189219475,-0.01660524681210518,0.0567345917224884,0.0,0.0,0.0,0.0,0.0,0.0,0.0,0.4935498730843564,-0.3411869323089846,0.5
3.475,TAKEOFF,0.25939682126045227,0.28545522689819336,0.19497136771678925,0.0,0.0,0.0,0.02629164233803749,0.012453935109078884,0.08717754483222961,0.0,0.0,0.0,0.0,0.0,0.0,0.0,0.5999285213317224,0.0092611712398106,0.5,0.6526039242744446,0.10745155811309814,0.23909881711006165,0.0,0.0,0.0,0.006918853148818016,-0.004151311703026295,0.03736180439591408,0.0,0.0,0.0,0.0,0.0,0.0,0.0,0.5991804285979123,0.03134986419782448,0.5,0.6455005407333374,0.6482914686203003,0.26182758808135986,0.0,0.0,0.0,0.019372789189219475,-0.01660524681210518,0.0567345917224884,0.0,0.0,0.0,0.0,0.0,0.0,0.0,0.4935641558651615,-0.34116627038016306,0.5
3.495,TAKEOFF,0.2614576816558838,0.2842704951763153,0.21827739477157593,0.0,0.0,0.0,0.029059182852506638,0.01107016485184431,0.0774911567568779,0.0,0.0,0.0,0.0,0.0,0.0,0.0,0.5999279058432774,0.009300956429293022,0.5,0.6526039242744446,0.10745155811309814,0.23909881711006165,0.0,0.0,0.0,0.006918853148818016,-0.004151311703026295,0.03736180439591408,0.0,0.0,0.0,0.0,0.0,0.0,0.0,0.59917669094223,0.031421219446726746,0.5,0.6455005407333374,0.6482914686203003,0.26182758808135986,0.0,0.0,0.0,0.019372789189219475,-0.01660524681210518,0.0567345917224884,0.0,0.0,0.0,0.0,0.0,0.0,0.0,0.493578352092062,-0.3411457318303784,0.5
3.515,TAKEOFF,0.2614576816558838,0.2842704951763153,0.21827739477157593,0.0,0.0,0.0,0.029059182852506638,0.01107016485184431,0.0774911567568779,0.0,0.0,0.0,0.0,0.0,0.0,0.0,0.5999272914330449,0.009340502867101723,0.5,0.6526698470115662,0.10656624287366867,0.2581089735031128,0.0,0.0,0.0,0.005535082425922155,-0.004151311703026295,0.03736180439591408,0.0,0.0,0.0,0.0,0.0,0.0,0.0,0.5991741028783524,0.0314705328827075,0.5,0.6463222503662109,0.6426805853843689,0.2849588692188263,0.0,0.0,0.0,0.01107016485184431,-0.01660524681210518,0.062269676476716995,0.0,0.0,0.0,0.0,0.0,0.0,0.0,0.49359246229461273,-0.3411253159264808,0.5
3.535,TAKEOFF,0.2614576816558838,0.2842704951763153,0.21827739477157593,0.0,0.0,0.0,0.029059182852506638,0.01107016485184431,0.0774911567568779,0.0,0.0,0.0,0.0,0.0,0.0,0.0,0.5999269582581397,0.009361877756959227,0.5,0.6526698470115662,0.10656624287366867,0.2581089735031128,0.0,0.0,0.0,0.005535082425922155,-0.004151311703026295,0.03736180439591408,0.0,0.0,0.0,0.0,0.0,0.0,0.0,0.5991715263207182,0.03151955022681744,0.5,0.6463222503662109,0.6426805853843689,0.2849588692188263,0.0,0.0,0.0,0.01107016485184431,-0.01660524681210518,0.062269676476716995,0.0,0.0,0.0,0.0,0.0,0.0,0.0,0.493603750363614,-0.3411089820379625,0.5
3.555,TAKEOFF,0.2614576816558838,0.2842704951763153,0.21827739477157593,0.0,0.0,0.0,0.029059182852506638,0.01107016485184431,0.0774911567568779,0.0,0.0,0.0,0.0,0.0,0.0,0.0,0.5999266263275556,0.00938312438570008,0.5,0.6526698470115662,0.10656624287366867,0.2581089735031128,0.0,0.0,0.0,0.005535082425922155,-0.004151311703026295,0.03736180439591408,0.0,0.0,0.0,0.0,0.0,0.0,0.0,0.599168961248428,0.03156827325781013,0.5,0.6463222503662109,0.6426805853843689,0.2849588692188263,0.0,0.0,0.0,0.01107016485184431,-0.01660524681210518,0.062269676476716995,0.0,0.0,0.0,0.0,0.0,0.0,0.0,0.4936149701685376,-0.3410927457826004,0.5
3.575,TAKEOFF,0.26633015275001526,0.2771725058555603,0.241322323679924,0.0,0.0,0.0,0.004151311703026295,-0.0,0.06918852776288986,0.0,0.0,0.0,0.0,0.0,0.0,0.0,0.5999262956428564,0.009404243523005477,0.5,0.6526698470115662,0.10656624287366867,0.2581089735031128,0.0,0.0,0.0,0.005535082425922155,-0.004151311703026295,0.03736180439591408,0.0,0.0,0.0,0.0,0.0,0.0,0.0,0.5991664076401314,0.03161670374374609,0.5,0.6463222503662109,0.6426805853843689,0.2849588692188263,0.0,0.0,0.0,0.01107016485184431,-0.01660524681210518,0.062269676476716995,0.0,0.0,0.0,0.0,0.0,0.0,0.0,0.4936261221253647,-0.3410766065790418,0.5
3.595,TAKEOFF,0.26633015275001526,0.2771725058555603,0.241322323679924,0.0,0.0,0.0,0.004151311703026295,-0.0,0.06918852776288986,0.0,0.0,0.0,0.0,0.0,0.0,0.0,0.599925966205489,0.009425235933937638,0.5,0.6526698470115662,0.10656624287366867,0.2581089735031128,0.0,0.0,0.0,0.005535082425922155,-0.004151311703026295,0.03736180439591408,0.0,0.0,0.0,0.0,0.0,0.0,0.0,0.5991680081384364,0.03158635818543358,0.5,0.6463222503662109,0.6426805853843689,0.2849588692188263,0.0,0.0,0.0,0.01107016485184431,-0.01660524681210518,0.062269676476716995,0.0,0.0,0.0,0.0,0.0,0.0,0.0,0.4936372066475042,-0.3410605638493685,0.5
3.615,TAKEOFF,0.26633015275001526,0.2771725058555603,0.241322323679924,0.0,0.0,0.0,0.004151311703026295,-0.0,0.06918852776288986,0.0,0.0,0.0,0.0,0.0,0.0,0.0,0.5999258315999363,0.009433799824294665,0.5,0.6534152030944824,0.10494306683540344,0.27918779850006104,0.0,0.0,0.0,0.0027675412129610777,-0.0,0.040129344910383224,0.0,0.0,0.0,0.0,0.0,0.0,0.0,0.5991695975106659,0.03155619462017823,0.5,0.6432916522026062,0.6353092789649963,0.30600082874298096,0.0,0.0,0.0,-0.0,0.0013837706064805388,0.062269676476716995,0.0,0.0,0.0,0.0,0.0,0.0,0.0,0.4936428993897237,-0.3410523242584737,0.5
3.635,TAKEOFF,0.26633015275001526,0.2771725058555603,0.241322323679924,0.0,0.0,0.0,0.004151311703026295,-0.0,0.06918852776288986,0.0,0.0,0.0,0.0,0.0,0.0,0.0,0.5999256976808661,0.009442312329404465,0.5,0.6534152030944824,0.10494306683540344,0.27918779850006104,0.0,0.0,0.0,0.0027675412129610777,-0.0,0.040129344910383224,0.0,0.0,0.0,0.0,0.0,0.0,0.0,0.5991711758417945,0.03152621195705809,0.5,0.6432916522026062,0.6353092789649963,0.30600082874298096,0.0,0.0,0.0,-0.0,0.0013837706064805388,0.062269676476716995,0.0,0.0,0.0,0.0,0.0,0.0,0.0,0.4936485578391933,-0.3410441340109584,0.5
3.655,TAKEOFF,0.26633015275001526,0.2771725058555603,0.241322323679924,0.0,0.0,0.0,0.004151311703026295,-0.0,0.06918852776288986,0.0,0.0,0.0,0.0,0.0,0.0,0.0,0.5999255644456091,0.009450773757599618,0.5,0.6534152030944824,0.10494306683540344,0.27918779850006104,0.0,0.0,0.0,0.0027675412129610777,-0.0,0.040129344910383224,0.0,0.0,0.0,0.0,0.0,0.0,0.0,0.5991727432160691,0.03149640911168297,0.5,0.6432916522026062,0.6353092789649963,0.30600082874298096,0.0,0.0,0.0,-0.0,0.0013837706064805388,0.062269676476716995,0.0,0.0,0.0,0.0,0.0,0.0,0.0,0.49365418220329865,-0.34103599281189134,0.5
3.675,TAKEOFF,0.269135057926178,0.27138057351112366,0.26177915930747986,0.0,0.0,0.0,0.0013837706064805388,-0.03044295310974121,0.062269676476716995,0.0,0.0,0.0,0.0,0.0,0.0,0.0,0.5999254318914945,0.009459184415362478,0.5,0.6534152030944824,0.10494306683540344,0.27918779850006104,0.0,0.0,0.0,0.0027675412129610777,-0.0,0.040129344910383224,0.0,0.0,0.0,0.0,0.0,0.0,0.0,0.5991772785713693,0.03141001184029837,0.5,0.6432916522026062,0.6353092789649963,0.30600082874298096,0.0,0.0,0.0,-0.0,0.0013837706064805388,0.062269676476716995,0.0,0.0,0.0,0.0,0.0,0.0,0.0,0.4936597726881615,-0.341027900368097,0.5
3.695,TAKEOFF,0.269135057926178,0.27138057351112366,0.26177915930747986,0.0,0.0,0.0,0.0013837706064805388,-0.03044295310974121,0.062269676476716995,0.0,0.0,0.0,0.0,0.0,0.0,0.0,0.5999253000158504,0.009467544607336295,0.5,0.6534152030944824,0.10494306683540344,0.27918779850006104,0.0,0.0,0.0,0.0027675412129610777,-0.0,0.040129344910383224,0.0,0.0,0.0,0.0,0.0,0.0,0.0,0.5991817743684449,0.03132413230533286,0.5,0.6432916522026062,0.6353092789649963,0.30600082874298096,0.0,0.0,0.0,-0.0,0.0013837706064805388,0.062269676476716995,0.0,0.0,0.0,0.0,0.0,0.0,0.0,0.49366532949864783,-0.3410198563881456,0.5
3.715,TAKEOFF,0.269135057926178,0.27138057351112366,0.26177915930747986,0.0,0.0,0.0,0.0013837706064805388,-0.03044295310974121,0.062269676476716995,0.0,0.0,0.0,0.0,0.0,0.0,0.0,0.5999254928089559,0.009455320086141503,0.5,0.6538318395614624,0.10307803750038147,0.29953473806381226,0.0,0.0,0.0,-0.005535082425922155,0.0013837706064805388,0.040129344910383224,0.0,0.0,0.0,0.0,0.0,0.0,0.0,0.5991862309922623,0.03123876740985953,0.5,0.6401387453079224,0.6250222325325012,0.32458388805389404,0.0,0.0,0.0,0.017989017069339752,-0.009686394594609737,0.0567345917224884,0.0,0.0,0.0,0.0,0.0,0.0,0.0,0.49366495634245994,-0.34102039657386635,0.5
3.735,TAKEOFF,0.269135057926178,0.27138057351112366,0.26177915930747986,0.0,0.0,0.0,0.0013837706064805388,-0.03044295310974121,0.062269676476716995,0.0,0.0,0.0,0.0,0.0,0.0,0.0,0.5999256841984443,0.009443168908183178,0.5,0.6538318395614624,0.10307803750038147,0.29953473806381226,0.0,0.0,0.0,-0.005535082425922155,0.0013837706064805388,0.040129344910383224,0.0,0.0,0.0,0.0,0.0,0.0,0.0,0.599190648823714,0.03115391407538822,0.5,0.6401387453079224,0.6250222325325012,0.32458388805389404,0.0,0.0,0.0,0.017989017069339752,-0.009686394594609737,0.0567345917224884,0.0,0.0,0.0,0.0,0.0,0.0,0.0,0.49366458542462344,-0.34102093351806817,0.5
3.755,TAKEOFF,0.269135057926178,0.27138057351112366,0.26177915930747986,0.0,0.0,0.0,0.0013837706064805388,-0.03044295310974121,0.062269676476716995,0.0,0.0,0.0,0.0,0.0,0.0,0.0,0.5999258741956905,0.009431090633453388,0.5,0.6538318395614624,0.10307803750038147,0.29953473806381226,0.0,0.0,0.0,-0.005535082425922155,0.0013837706064805388,0.040129344910383224,0.0,0.0,0.0,0.0,0.0,0.0,0.0,0.5991950282396639,0.031069569241757168,0.5,0.6401387453079224,0.6250222325325012,0.32458388805389404,0.0,0.0,0.0,0.017989017069339752,-0.009686394594609737,0.0567345917224884,0.0,0.0,0.0,0.0,0.0,0.0,0.0,0.4936642167317152,-0.34102146724020493,0.5
3.775,TAKEOFF,0.26817190647125244,0.2631593942642212,0.2868233025074005,0.0,0.0,0.0,0.00830262340605259,0.0027675412129610777,0.05535082519054413,0.0,0.0,0.0,0.0,0.0,0.0,0.0,0.5999260628119663,0.009419084824583543,0.5,0.6538318395614624,0.10307803750038147,0.29953473806381226,0.0,0.0,0.0,-0.005535082425922155,0.0013837706064805388,0.040129344910383224,0.0,0.0,0.0,0.0,0.0,0.0,0.0,0.5992018938196738,0.03093687836411952,0.5,0.6401387453079224,0.6250222325325012,0.32458388805389404,0.0,0.0,0.0,0.017989017069339752,-0.009686394594609737,0.0567345917224884,0.0,0.0,0.0,0.0,0.0,0.0,0.0,0.4936638502503925,-0.3410219977596138,0.5
3.795,TAKEOFF,0.26817190647125244,0.2631593942642212,0.2868233025074005,0.0,0.0,0.0,0.00830262340605259,0.0027675412129610777,0.05535082519054413,0.0,0.0,0.0,0.0,0.0,0.0,0.0,0.5999262500584401,0.00940715104682858,0.5,0.6538318395614624,0.10307803750038147,0.29953473806381226,0.0,0.0,0.0,-0.005535082425922155,0.0013837706064805388,0.040129344910383224,0.0,0.0,0.0,0.0,0.0,0.0,0.0,0.5992086890859295,0.0308049821282509,0.5,0.6401387453079224,0.6250222325325012,0.32458388805389404,0.0,0.0,0.0,0.017989017069339752,-0.009686394594609737,0.0567345917224884,0.0,0.0,0.0,0.0,0.0,0.0,0.0,0.49366348596739273,-0.341022525095516,0.5
3.815,TAKEOFF,0.26817190647125244,0.2631593942642212,0.2868233025074005,0.0,0.0,0.0,0.00830262340605259,0.0027675412129610777,0.05535082519054413,0.0,0.0,0.0,0.0,0.0,0.0,0.0,0.5999265942644256,0.009385174174582156,0.5,0.6542859673500061,0.1024055927991867,0.3196001946926117,0.0,0.0,0.0,-0.0,0.004151311703026295,0.04428065940737724,0.0,0.0,0.0,0.0,0.0,0.0,0.0,0.5992154148083821,0.03067387579062187,0.5,0.6332919597625732,0.6148706078529358,0.34134793281555176,0.0,0.0,0.0,-0.03044295310974121,0.006918853148818016,0.035978034138679504,0.0,0.0,0.0,0.0,0.0,0.0,0.0,0.49366085306972163,-0.3410263364411533,0.5
3.835,TAKEOFF,0.26817190647125244,0.2631593942642212,0.2868233025074005,0.0,0.0,0.0,0.00830262340605259,0.0027675412129610777,0.05535082519054413,0.0,0.0,0.0,0.0,0.0,0.0,0.0,0.5999269356073358,0.009363329151087854,0.5,0.6542859673500061,0.1024055927991867,0.3196001946926117,0.0,0.0,0.0,-0.0,0.004151311703026295,0.04428065940737724,0.0,0.0,0.0,0.0,0.0,0.0,0.0,0.5992220717482061,0.03054355463575994,0.5,0.6332919597625732,0.6148706078529358,0.34134793281555176,0.0,0.0,0.0,-0.03044295310974121,0.006918853148818016,0.035978034138679504,0.0,0.0,0.0,0.0,0.0,0.0,0.0,0.49365823594027525,-0.3410301248985718,0.5
3.855,TAKEOFF,0.26817190647125244,0.2631593942642212,0.2868233025074005,0.0,0.0,0.0,0.00830262340605259,0.0027675412129610777,0.05535082519054413,0.0,0.0,0.0,0.0,0.0,0.0,0.0,0.599927274113894,0.009341615185431197,0.5,0.6542859673500061,0.1024055927991867,0.3196001946926117,0.0,0.0,0.0,-0.0,0.004151311703026295,0.04428065940737724,0.0,0.0,0.0,0.0,0.0,0.0,0.0,0.5992286606579014,0.03041401397608809,0.5,0.6332919597625732,0.6148706078529358,0.34134793281555176,0.0,0.0,0.0,-0.03044295310974121,0.006918853148818016,0.035978034138679504,0.0,0.0,0.0,0.0,0.0,0.0,0.0,0.4936556344847933,-0.34103389060534167,0.5
3.875,TAKEOFF,0.26691216230392456,0.2538193166255951,0.31181710958480835,0.0,0.0,0.0,0.013837706297636032,0.005535082425922155,0.04704819992184639,0.0,0.0,0.0,0.0,0.0,0.0,0.0,0.5999276098105492,0.009320031491440546,0.5,0.6542859673500061,0.1024055927991867,0.3196001946926117,0.0,0.0,0.0,-0.0,0.004151311703026295,0.04428065940737724,0.0,0.0,0.0,0.0,0.0,0.0,0.0,0.599235182281394,0.03028524915176414,0.5,0.6332919597625732,0.6148706078529358,0.34134793281555176,0.0,0.0,0.0,-0.03044295310974121,0.006918853148818016,0.035978034138679504,0.0,0.0,0.0,0.0,0.0,0.0,0.0,0.49365304860957676,-0.3410376336982046,0.5
3.895,TAKEOFF,0.26691216230392456,0.2538193166255951,0.31181710958480835,0.0,0.0,0.0,0.013837706297636032,0.005535082425922155,0.04704819992184639,0.0,0.0,0.0,0.0,0.0,0.0,0.0,0.5999279427234786,0.009298577287658686,0.5,0.6542859673500061,0.1024055927991867,0.3196001946926117,0.0,0.0,0.0,-0.0,0.004151311703026295,0.04428065940737724,0.0,0.0,0.0,0.0,0.0,0.0,0.0,0.5992444762838284,0.030100791406876843,0.5,0.6332919597625732,0.6148706078529358,0.34134793281555176,0.0,0.0,0.0,-0.03044295310974121,0.006918853148818016,0.035978034138679504,0.0,0.0,0.0,0.0,0.0,0.0,0.0,0.49365047822148483,-0.3410413543130792,0.5
3.915,TAKEOFF,0.26691216230392456,0.2538193166255951,0.31181710958480835,0.0,0.0,0.0,0.013837706297636032,0.005535082425922155,0.04704819992184639,0.0,0.0,0.0,0.0,0.0,0.0,0.0,0.5999285476012274,0.00925946937366553,0.5,0.6553869843482971,0.10229011625051498,0.3399731516838074,0.0,0.0,0.0,-0.004151311703026295,-0.0013837706064805388,0.04428065940737724,0.0,0.0,0.0,0.0,0.0,0.0,0.0,0.5992536582521067,0.029917437581905335,0.5,0.6305756568908691,0.606210470199585,0.35552161931991577,0.0,0.0,0.0,-0.019372789189219475,0.005535082425922155,0.01107016485184431,0.0,0.0,0.0,0.0,0.0,0.0,0.0,0.4936470460682807,-0.34104632223212844,0.5
3.935,TAKEOFF,0.26691216230392456,0.2538193166255951,0.31181710958480835,0.0,0.0,0.0,0.013837706297636032,0.005535082425922155,0.04704819992184639,0.0,0.0,0.0,0.0,0.0,0.0,0.0,0.5999291463232536,0.009220596068161956,0.5,0.6553869843482971,0.10229011625051498,0.3399731516838074,0.0,0.0,0.0,-0.004151311703026295,-0.0013837706064805388,0.04428065940737724,0.0,0.0,0.0,0.0,0.0,0.0,0.0,0.5992627295307984,0.02973518110415848,0.5,0.6305756568908691,0.606210470199585,0.35552161931991577,0.0,0.0,0.0,-0.019372789189219475,0.005535082425922155,0.01107016485184431,0.0,0.0,0.0,0.0,0.0,0.0,0.0,0.49364363445844944,-0.3410512603094332,0.5
3.955,TAKEOFF,0.26691216230392456,0.2538193166255951,0.31181710958480835,0.0,0.0,0.0,0.013837706297636032,0.005535082425922155,0.04704819992184639,0.0,0.0,0.0,0.0,0.0,0.0,0.0,0.5999297389567155,0.009181955964125304,0.5,0.6553869843482971,0.10229011625051498,0.3399731516838074,0.0,0.0,0.0,-0.004151311703026295,-0.0013837706064805388,0.04428065940737724,0.0,0.0,0.0,0.0,0.0,0.0,0.0,0.599271691448381,0.029554015439469058,0.5,0.6305756568908691,0.606210470199585,0.35552161931991577,0.0,0.0,0.0,-0.019372789189219475,0.005535082425922155,0.01107016485184431,0.0,0.0,0.0,0.0,0.0,0.0,0.0,0.49364024326932393,-0.3410561687244531,0.5
3.975,TAKEOFF,0.26790276169776917,0.2417972981929779,0.33757123351097107,0.0,0.0,0.0,-0.017989017069339752,0.017989017069339752,0.03321049362421036,0.0,0.0,0.0,0.0,0.0,0.0,0.0,0.5999303255680072,0.00914354766296464,0.5,0.6553869843482971,0.10229011625051498,0.3399731516838074,0.0,0.0,0.0,-0.004151311703026295,-0.0013837706064805388,0.04428065940737724,0.0,0.0,0.0,0.0,0.0,0.0,0.0,0.5992851264564051,0.029280321175332046,0.5,0.6305756568908691,0.606210470199585,0.35552161931991577,0.0,0.0,0.0,-0.019372789189219475,0.005535082425922155,0.01107016485184431,0.0,0.0,0.0,0.0,0.0,0.0,0.0,0.4936368723789661,-0.3410610476555661,0.5
3.995,TAKEOFF,0.26790276169776917,0.2417972981929779,0.33757123351097107,0.0,0.0,0.0,-0.017989017069339752,0.017989017069339752,0.03321049362421036,0.0,0.0,0.0,0.0,0.0,0.0,0.0,0.5999309062227668,0.009105369774470339,0.5,0.6553869843482971,0.10229011625051498,0.3399731516838074,0.0,0.0,0.0,-0.004151311703026295,-0.0013837706064805388,0.04428065940737724,0.0,0.0,0.0,0.0,0.0,0.0,0.0,0.5992983569778229,0.029008263024212867,0.5,0.6305756568908691,0.606210470199585,0.35552161931991577,0.0,0.0,0.0,-0.019372789189219475,0.005535082425922155,0.01107016485184431,0.0,0.0,0.0,0.0,0.0,0.0,0.0,0.4936335216661622,-0.3410658972800748,0.5
4.015,TAKEOFF,0.26790276169776917,0.2417972981929779,0.33757123351097107,0.0,0.0,0.0,-0.017989017069339752,0.017989017069339752,0.03321049362421036,0.0,0.0,0.0,0.0,0.0,0.0,0.0,0.5999314694256235,0.00906818575086468,0.5,0.6562211513519287,0.1030246764421463,0.3601042926311493,0.0,0.0,0.0,-0.0013837706064805388,-0.0013837706064805388,0.04289688542485237,0.0,0.0,0.0,0.0,0.0,0.0,0.0,0.5993113857189112,0.028737831297410567,0.5,0.6279147267341614,0.6039091348648071,0.37076765298843384,0.0,0.0,0.0,-0.023524099960923195,0.004151311703026295,-0.006918853148818016,0.0,0.0,0.0,0.0,0.0,0.0,0.0,0.4936320306419591,-0.3410680552680006,0.5
4.035,TAKEOFF,0.26790276169776917,0.2417972981929779,0.33757123351097107,0.0,0.0,0.0,-0.017989017069339752,0.017989017069339752,0.03321049362421036,0.0,0.0,0.0,0.0,0.0,0.0,0.0,0.599932026965279,0.009031224796877112,0.5,0.6562211513519287,0.1030246764421463,0.3601042926311493,0.0,0.0,0.0,-0.0013837706064805388,-0.0013837706064805388,0.04289688542485237,0.0,0.0,0.0,0.0,0.0,0.0,0.0,0.5993242153520828,0.028469016361832297,0.5,0.6279147267341614,0.6039091348648071,0.37076765298843384,0.0,0.0,0.0,-0.023524099960923195,0.004151311703026295,-0.006918853148818016,0.0,0.0,0.0,0.0,0.0,0.0,0.0,0.4936305485545521,-0.34107020030153906,0.5
4.055,TAKEOFF,0.26790276169776917,0.2417972981929779,0.33757123351097107,0.0,0.0,0.0,-0.017989017069339752,0.017989017069339752,0.03321049362421036,0.0,0.0,0.0,0.0,0.0,0.0,0.0,0.5999325789030361,0.008994485574641995,0.5,0.6562211513519287,0.1030246764421463,0.3601042926311493,0.0,0.0,0.0,-0.0013837706064805388,-0.0013837706064805388,0.04289688542485237,0.0,0.0,0.0,0.0,0.0,0.0,0.0,0.5993368485162991,0.02820180863970761,0.5,0.6279147267341614,0.6039091348648071,0.37076765298843384,0.0,0.0,0.0,-0.023524099960923195,0.004151311703026295,-0.006918853148818016,0.0,0.0,0.0,0.0,0.0,0.0,0.0,0.4936290753504321,-0.34107233245849394,0.5
4.075,TAKEOFF,0.2722797989845276,0.23188410699367523,0.36381155252456665,0.0,0.0,0.0,-0.019372789189219475,0.009686394594609737,0.02214032970368862,0.0,0.0,0.0,0.0,0.0,0.0,0.0,0.5999331252995025,0.008957966754311791,0.5,0.6562211513519287,0.1030246764421463,0.3601042926311493,0.0,0.0,0.0,-0.0013837706064805388,-0.0013837706064805388,0.04289688542485237,0.0,0.0,0.0,0.0,0.0,0.0,0.0,0.5993492878174774,0.027936198608303552,0.5,0.6279147267341614,0.6039091348648071,0.37076765298843384,0.0,0.0,0.0,-0.023524099960923195,0.004151311703026295,-0.006918853148818016,0.0,0.0,0.0,0.0,0.0,0.0,0.0,0.49362761097641006,-0.3410744518162009,0.5
4.095,TAKEOFF,0.2722797989845276,0.23188410699367523,0.36381155252456665,0.0,0.0,0.0,-0.019372789189219475,0.009686394594609737,0.02214032970368862,0.0,0.0,0.0,0.0,0.0,0.0,0.0,0.5999336662146,0.008921667014009113,0.5,0.6562211513519287,0.1030246764421463,0.3601042926311493,0.0,0.0,0.0,-0.0013837706064805388,-0.0013837706064805388,0.04289688542485237,0.0,0.0,0.0,0.0,0.0,0.0,0.0,0.5993663054450461,0.02756867601383206,0.5,0.6279147267341614,0.6039091348648071,0.37076765298843384,0.0,0.0,0.0,-0.023524099960923195,0.004151311703026295,-0.006918853148818016,0.0,0.0,0.0,0.0,0.0,0.0,0.0,0.4936261553796146,-0.34107655845153084,0.5
4.115,TAKEOFF,0.2722797989845276,0.23188410699367523,0.36381155252456665,0.0,0.0,0.0,-0.019372789189219475,0.009686394594609737,0.02214032970368862,0.0,0.0,0.0,0.0,0.0,0.0,0.0,0.5999342017075713,0.008885585039779044,0.5,0.6610148549079895,0.1015273779630661,0.37578099966049194,0.0,0.0,0.0,-0.0,-0.0027675412129610777,0.041513118892908096,0.0,0.0,0.0,0.0,0.0,0.0,0.0,0.5993829976252761,0.027203348281750653,0.5,0.6288236975669861,0.6042356491088867,0.3868539035320282,0.0,0.0,0.0,-0.01660524681210518,0.027675412595272064,-0.0013837706064805388,0.0,0.0,0.0,0.0,0.0,0.0,0.0,0.4936247085074903,-0.34107865244089264,0.5
