timestamp_sec,flight_state,fault_type,fault_motor_health,cf1_X,cf1_Y,cf1_Z,cf1_VelX,cf1_VelY,cf1_VelZ,cf1_Roll,cf1_Pitch,cf1_Yaw,cf1_GyroX,cf1_GyroY,cf1_GyroZ,cf1_Motor1,cf1_Motor2,cf1_Motor3,cf1_Motor4,cf1_targ_x,cf1_targ_y,cf1_targ_z,cf2_X,cf2_Y,cf2_Z,cf2_VelX,cf2_VelY,cf2_VelZ,cf2_Roll,cf2_Pitch,cf2_Yaw,cf2_GyroX,cf2_GyroY,cf2_GyroZ,cf2_Motor1,cf2_Motor2,cf2_Motor3,cf2_Motor4,cf2_targ_x,cf2_targ_y,cf2_targ_z,cf3_X,cf3_Y,cf3_Z,cf3_VelX,cf3_VelY,cf3_VelZ,cf3_Roll,cf3_Pitch,cf3_Yaw,cf3_GyroX,cf3_GyroY,cf3_GyroZ,cf3_Motor1,cf3_Motor2,cf3_Motor3,cf3_Motor4,cf3_targ_x,cf3_targ_y,cf3_targ_z
0.009,TAKEOFF,none,1.0,0.6268647909164429,0.011292429640889168,-0.0007840654579922557,-0.026024876162409782,-0.007437984459102154,-0.003019752213731408,0.20131488144397736,0.4394840896129608,4.955748558044434,-0.17390219867229462,0.3833604156970978,0.0676264539361,0.0,0.0,0.0,0.0,0.6,0.0,0.5,-0.5200086832046509,0.5390572547912598,0.007686059456318617,-0.01885058358311653,0.008821846917271614,0.0065259481780231,0.6348775625228882,-0.6403891444206238,1.898179054260254,-0.11000721901655197,-0.10755404084920883,-0.04502725973725319,0.0,0.0,0.0,0.0,-0.3000025448675481,0.51961377298239,0.5,-0.41291627287864685,-0.603041410446167,0.006843297742307186,-0.014625209383666515,0.018984995782375336,-0.004668877925723791,0.5401850938796997,-0.14446453750133514,3.6210148334503174,0.054492756724357605,0.03108851984143257,-0.04153894633054733,0.0,0.0,0.0,0.0,-0.29999491024331576,-0.5196181808098181,0.5
0.029,TAKEOFF,none,1.0,0.6268647909164429,0.011292429640889168,-0.0007840654579922557,-0.027157872915267944,-0.0073182000778615475,-0.0029938104562461376,0.24792952835559845,0.5720303654670715,4.966659069061279,-0.13765262067317963,0.003963871859014034,-0.2033568024635315,0.0,0.0,0.0,0.0,0.6,0.0,0.5,-0.5200086832046509,0.5390572547912598,0.007686059456318617,-0.01869296468794346,0.009269380941987038,0.008113076910376549,0.7809600234031677,-0.8104170560836792,1.8869942426681519,0.23756596446037292,-0.14394378662109375,0.1623660773038864,0.0,0.0,0.0,0.0,-0.3000025448675481,0.51961377298239,0.5,-0.41291627287864685,-0.603041410446167,0.006843297742307186,-0.014625209383666515,0.018984995782375336,-0.004668877925723791,0.5413973927497864,-0.1450875997543335,3.621373414993286,-0.14871372282505035,0.42218726873397827,0.036941010504961014,0.0,0.0,0.0,0.0,-0.29999491024331576,-0.5196181808098181,0.5
0.049,TAKEOFF,none,1.0,0.6208942532539368,0.012895640917122364,0.0007367100333794951,-0.0017046625725924969,-0.012196465395390987,-0.010785919614136219,0.247520312666893,0.5720124244689941,4.96765661239624,0.08488314598798752,0.12176409363746643,0.28980833292007446,0.0,0.0,0.0,0.0,0.6,0.0,0.5,-0.5173518657684326,0.5371190905570984,0.007860491052269936,0.004719520919024944,-0.009757360443472862,-0.00407523475587368,0.7810440063476562,-0.8113202452659607,1.8872545957565308,-0.30624914169311523,-0.18953996896743774,0.15419088304042816,38287.0,35615.0,36202.0,35696.0,-0.3000025448675481,0.51961377298239,0.5,-0.41291627287864685,-0.603041410446167,0.006843297742307186,-0.014991538599133492,0.019051123410463333,-0.004651921801269054,0.5400410890579224,-0.1469646543264389,3.622060537338257,0.19108404219150543,0.2187803089618683,0.07116091251373291,0.0,0.0,0.0,0.0,-0.29999491024331576,-0.5196181808098181,0.5
0.069,TAKEOFF,none,1.0,0.6208942532539368,0.012895640917122364,0.0007367100333794951,-0.015067430213093758,-0.0036170079838484526,0.001604215009137988,0.24285490810871124,0.4269604980945587,4.908127784729004,0.48029625415802,0.47514569759368896,-2.060865879058838,38502.0,34945.0,38786.0,34082.0,0.6,0.0,0.5,-0.5173518657684326,0.5371190905570984,0.007860491052269936,0.006318559870123863,-0.01090355683118105,-0.004227097146213055,0.8221042156219482,-0.9060308337211609,1.8573927879333496,-0.1552383452653885,0.046049222350120544,-0.3062404692173004,39185.0,36472.0,36388.0,35979.0,-0.3000025448675481,0.51961377298239,0.5,-0.41761088371276855,-0.6003332138061523,0.006770665757358074,-0.009293662384152412,0.013044449500739574,-0.002879553474485874,0.5747905969619751,-0.18506570160388947,3.6161978244781494,0.3751208484172821,-0.35577845573425293,0.9542627334594727,37900.0,35130.0,38201.0,34835.0,-0.29999491024331576,-0.5196181808098181,0.5
0.089,TAKEOFF,none,1.0,0.6208942532539368,0.012895640917122364,0.0007367100333794951,-0.011509861797094345,-0.005914260633289814,-0.003374360967427492,0.24285490810871124,0.4269604980945587,4.908127784729004,0.48029625415802,0.47514569759368896,-2.060865879058838,39211.0,34990.0,39594.0,34937.0,0.6,0.0,0.5,-0.5173518657684326,0.5371190905570984,0.007860491052269936,0.0030899730045348406,-0.0071935271844267845,-0.005988792981952429,0.7381510138511658,-0.7486429810523987,1.891445279121399,-0.9490249156951904,1.3787586688995361,1.2522045373916626,39578.0,36176.0,37198.0,38210.0,-0.3000025448675481,0.51961377298239,0.5,-0.41761088371276855,-0.6003332138061523,0.006770665757358074,-0.008555402979254723,0.011099157854914665,-0.0028009742964059114,0.5808807611465454,-0.1800965517759323,3.6183433532714844,-0.37375763058662415,-0.15455564856529236,-0.9305068254470825,38625.0,35176.0,38403.0,35913.0,-0.29999491024331576,-0.5196181808098181,0.5
0.109,TAKEOFF,none,1.0,0.6208942532539368,0.012895640917122364,0.0007367100333794951,-0.012893584556877613,-0.006883898749947548,-0.0029148298781365156,0.12402676045894623,0.4749810993671417,4.962108135223389,0.0027905027382075787,1.410561203956604,-2.132984161376953,40360.0,35881.0,39715.0,35205.0,0.6,0.0,0.5,-0.5173518657684326,0.5371190905570984,0.007860491052269936,-0.0021311789751052856,-0.004013468977063894,0.0024726935662329197,0.6815323829650879,-0.7118703126907349,1.935125708580017,-1.087602138519287,2.8713479042053223,-2.1678977012634277,41961.0,37807.0,36366.0,36934.0,-0.3000025448675481,0.51961377298239,0.5,-0.41761088371276855,-0.6003332138061523,0.006770665757358074,-0.010715661570429802,0.0015267564449459314,-0.003547542728483677,0.6439898014068604,-0.1520390659570694,3.591568946838379,-1.6523386240005493,1.1298688650131226,-0.5352407693862915,39621.0,38396.0,39900.0,34687.0,-0.29999491024331576,-0.5196181808098181,0.5
0.129,TAKEOFF,none,1.0,0.6208942532539368,0.012895640917122364,0.0007367100333794951,-0.02862781658768654,0.0013149876613169909,0.004777153022587299,0.12402676045894623,0.4749810993671417,4.962108135223389,0.0027905027382075787,1.410561203956604,-2.132984161376953,37655.0,37575.0,42058.0,35337.0,0.6,0.0,0.5,-0.5173518657684326,0.5371190905570984,0.007860491052269936,0.000433954264735803,-0.006131656933575869,0.005429066251963377,0.6643508076667786,-0.7348739504814148,1.9257911443710327,-0.03149982914328575,0.5516499280929565,2.6458404064178467,41351.0,38416.0,37935.0,37659.0,-0.3000025448675481,0.51961377298239,0.5,-0.41761088371276855,-0.6003332138061523,0.006770665757358074,-0.009634113870561123,-0.002507410943508148,-0.0065128253772854805,0.6439898014068604,-0.1520390659570694,3.591568946838379,-1.6523386240005493,1.1298688650131226,-0.5352407693862915,40692.0,38318.0,40802.0,36978.0,-0.29999491024331576,-0.5196181808098181,0.5
0.149,TAKEOFF,none,1.0,0.6237003803253174,0.01469882857054472,0.001395185012370348,-0.029460331425070763,0.0009614017908461392,0.003485088935121894,0.14582279324531555,0.5050685405731201,4.566131591796875,-1.017032504081726,1.052951455116272,-22.958433151245117,38322.0,37887.0,41238.0,37074.0,0.6,0.0,0.5,-0.5196062326431274,0.5381878614425659,0.008708030916750431,0.0031103987712413073,-0.007984841242432594,0.0029177723918110132,0.7121484279632568,-0.697048008441925,1.8597180843353271,-0.6790475845336914,2.2657947540283203,-13.43593692779541,40710.0,38727.0,38171.0,39942.0,-0.3000025448675481,0.51961377298239,0.5,-0.41761088371276855,-0.6003332138061523,0.006770665757358074,0.011979414150118828,-0.010114242322742939,0.001585670281201601,0.6381667852401733,-0.17711366713047028,3.5611228942871094,2.6066436767578125,-1.8335593938827515,0.8851156234741211,42089.0,40150.0,41375.0,36605.0,-0.29999491024331576,-0.5196181808098181,0.5
0.169,TAKEOFF,none,1.0,0.6237003803253174,0.01469882857054472,0.001395185012370348,-0.031079258769750595,0.0003340989351272583,-0.00521683506667614,0.11540204286575317,0.5094054341316223,4.099595069885254,1.1057758331298828,-2.9665253162384033,-34.57326889038086,39322.0,38686.0,39801.0,38793.0,0.6,0.0,0.5,-0.5196062326431274,0.5381878614425659,0.008708030916750431,0.0028693838976323605,-0.005512764677405357,0.00436061155050993,0.6800944805145264,-0.8272879719734192,1.613397479057312,0.8862380385398865,-1.3550442457199097,-12.280692100524902,39799.0,41490.0,38370.0,39255.0,-0.3000025448675481,0.51961377298239,0.5,-0.4171724319458008,-0.6015014052391052,0.00753776915371418,0.011979414150118828,-0.010114242322742939,0.001585670281201601,0.7062778472900391,-0.3165718913078308,3.604954481124878,0.2832164168357849,-0.7728654742240906,3.5792670249938965,42394.0,38747.0,42555.0,38702.0,-0.29999491024331576,-0.5196181808098181,0.5
0.189,TAKEOFF,none,1.0,0.6237003803253174,0.01469882857054472,0.001395185012370348,-0.03482963889837265,0.0053725698962807655,-0.005509029142558575,0.15533553063869476,0.4845918118953705,3.403369188308716,3.188352346420288,-2.7153282165527344,-41.65813064575195,40237.0,41333.0,37175.0,39049.0,0.6,0.0,0.5,-0.5196062326431274,0.5381878614425659,0.008708030916750431,0.016564862802624702,-0.016056226566433907,-0.005846226587891579,0.7742489576339722,-0.7184752225875854,1.1517678499221802,4.366578102111816,-6.03840970993042,-21.16032600402832,41618.0,39793.0,38016.0,41265.0,-0.3000025448675481,0.51961377298239,0.5,-0.4171724319458008,-0.6015014052391052,0.00753776915371418,0.011182291433215141,-0.012494183145463467,-0.003465736284852028,0.6943752765655518,-0.2837218940258026,3.6135129928588867,1.6289070844650269,5.141418933868408,-13.55211353302002,44033.0,38660.0,39571.0,42441.0,-0.29999491024331576,-0.5196181808098181,0.5
0.209,TAKEOFF,none,1.0,0.6237003803253174,0.01469882857054472,0.001395185012370348,-0.04685947299003601,0.00033951111254282296,-1.1525395166245289e-05,0.1984393447637558,0.5639921426773071,2.935828924179077,3.700711727142334,4.356552600860596,-58.77614212036133,37152.0,42233.0,38795.0,40317.0,0.6,0.0,0.5,-0.5196062326431274,0.5381878614425659,0.008708030916750431,0.01717698946595192,-0.019227731972932816,-0.0015534365084022284,0.7737610936164856,-0.7154029011726379,0.9923296570777893,-6.153233051300049,6.455206394195557,3.5662622451782227,43261.0,41248.0,40332.0,36823.0,-0.3000025448675481,0.51961377298239,0.5,-0.4171724319458008,-0.6015014052391052,0.00753776915371418,0.01188170351088047,-0.01355293020606041,-0.0016894929576665163,0.6323115229606628,-0.36130496859550476,3.575706958770752,-7.173648357391357,8.71070384979248,-5.021159648895264,44032.0,40686.0,41905.0,40361.0,-0.29999491024331576,-0.5196181808098181,0.5
0.229,TAKEOFF,none,1.0,0.6184614896774292,0.015446008183062077,0.0034970026463270187,-0.04857226088643074,0.0013723677257075906,0.007441161200404167,0.1984393447637558,0.5639921426773071,2.935828924179077,3.700711727142334,4.356552600860596,-58.77614212036133,35824.0,45661.0,35951.0,40594.0,0.6,0.0,0.5,-0.5196062326431274,0.5381878614425659,0.008708030916750431,0.007575165014714003,-0.011325163766741753,0.00416532251983881,0.699155867099762,-0.6146171689033508,1.1924432516098022,-3.2140533924102783,0.13899877667427063,12.106743812561035,43181.0,38749.0,40253.0,40540.0,-0.3000025448675481,0.51961377298239,0.5,-0.4171724319458008,-0.6015014052391052,0.00753776915371418,0.012097354047000408,-0.013185868039727211,0.0038205375894904137,0.5451821684837341,-0.41872692108154297,3.637707233428955,7.196171760559082,-7.706272125244141,13.863434791564941,45072.0,41024.0,44089.0,37605.0,-0.29999491024331576,-0.5196181808098181,0.5
0.249,TAKEOFF,none,1.0,0.6184614896774292,0.015446008183062077,0.0034970026463270187,-0.05025094002485275,0.00038025350659154356,0.0020896769128739834,0.30494409799575806,0.21141782402992249,0.013641753233969212,-2.9844446182250977,-0.10095588862895966,-81.57259368896484,32044.0,46903.0,36355.0,42266.0,0.6,0.0,0.5,-0.5187897086143494,0.537788987159729,0.009129049256443977,0.009888502769172192,-0.013678518123924732,0.011021511629223824,0.652888834476471,-0.6294230818748474,1.3406038284301758,6.1137800216674805,-6.098513126373291,3.6004855632781982,41340.0,39021.0,41599.0,41599.0,-0.3000025448675481,0.51961377298239,0.5,-0.4171724319458008,-0.6015014052391052,0.00753776915371418,0.028396811336278915,-0.02389729581773281,-0.0067865001037716866,0.5820083022117615,-0.4501318037509918,3.8728950023651123,2.2024686336517334,-2.017986536026001,4.477034568786621,42984.0,39667.0,45642.0,41054.0,-0.29999491024331576,-0.5196181808098181,0.5
0.269,TAKEOFF,none,1.0,0.6184614896774292,0.015446008183062077,0.0034970026463270187,-0.01462702825665474,-0.002310228068381548,-0.01772434264421463,0.2686609625816345,0.21456846594810486,-1.5883814096450806,-1.5960807800292969,-4.949134349822998,-46.60975646972656,35660.0,47359.0,34672.0,42675.0,0.6,0.0,0.5,-0.5187897086143494,0.537788987159729,0.009129049256443977,0.01207761187106371,-0.015796678140759468,0.006148708984255791,0.680862307548523,-0.579375147819519,1.3506830930709839,-1.101874589920044,3.0366170406341553,-4.124732971191406,36005.0,41789.0,45475.0,40635.0,-0.3000025448675481,0.51961377298239,0.5,-0.41614457964897156,-0.6026887893676758,0.007354156579822302,0.028396811336278915,-0.02389729581773281,-0.0067865001037716866,0.5820083022117615,-0.4501318037509918,3.8728950023651123,2.2024686336517334,-2.017986536026001,4.477034568786621,45319.0,40397.0,44306.0,41220.0,-0.29999491024331576,-0.5196181808098181,0.5
0.289,TAKEOFF,none,1.0,0.6184614896774292,0.015446008183062077,0.0034970026463270187,0.001170521485619247,-0.0009951265528798103,-0.020047955214977264,0.25296708941459656,0.10315806418657303,-2.658176898956299,-3.404125213623047,-5.9166436195373535,-17.817731857299805,38410.0,44117.0,36662.0,44166.0,0.6,0.0,0.5,-0.5187897086143494,0.537788987159729,0.009129049256443977,0.01418284047394991,-0.018086843192577362,0.008949392475187778,0.6602866649627686,-0.6115752458572388,1.2458322048187256,13.04348373413086,-1.1060012578964233,-5.8934645652771,35133.0,38824.0,46489.0,43620.0,-0.3000025448675481,0.51961377298239,0.5,-0.41614457964897156,-0.6026887893676758,0.007354156579822302,0.018106112256646156,-0.017241526395082474,0.0029114445205777884,0.6284113526344299,-0.34789785742759705,3.9325976371765137,5.346740245819092,-1.6468771696090698,6.090606212615967,46113.0,41218.0,44238.0,40667.0,-0.29999491024331576,-0.5196181808098181,0.5
0.309,TAKEOFF,none,1.0,0.6184614896774292,0.015446008183062077,0.0034970026463270187,0.005414366722106934,0.0009657230111770332,-0.029438557103276253,-0.0102309575304389,0.11400413513183594,-3.026637077331543,-8.167171478271484,-8.59858512878418,10.78010082244873,39755.0,42731.0,41185.0,43199.0,0.6,0.0,0.5,-0.5187897086143494,0.537788987159729,0.009129049256443977,0.016214530915021896,-0.02040020562708378,0.012561299838125706,0.7825452089309692,-0.5145793557167053,1.0949721336364746,-1.7481317520141602,10.284917831420898,-5.436181545257568,47050.0,43521.0,34867.0,39292.0,-0.3000025448675481,0.51961377298239,0.5,-0.41614457964897156,-0.6026887893676758,0.007354156579822302,0.018968557938933372,-0.018949730321764946,0.00022442229965236038,0.6238435506820679,-0.3433263897895813,3.831606149673462,-10.1675443649292,9.115615844726562,-16.308515548706055,45344.0,41581.0,43670.0,43077.0,-0.29999491024331576,-0.5196181808098181,0.5
0.329,TAKEOFF,none,1.0,0.6184614896774292,0.015446008183062077,0.0034970026463270187,0.005787840113043785,0.027689253911376,-0.01193071249872446,-0.0102309575304389,0.11400413513183594,-3.026637077331543,-8.167171478271484,-8.59858512878418,10.78010082244873,39911.0,39526.0,43694.0,42774.0,0.6,0.0,0.5,-0.5187897086143494,0.537788987159729,0.009129049256443977,0.01806751638650894,-0.02298159897327423,0.010285294614732265,0.7509999871253967,-0.7040653824806213,0.9334052801132202,-0.524232804775238,-0.35774102807044983,-6.519313335418701,47050.0,43521.0,34867.0,39292.0,-0.3000025448675481,0.51961377298239,0.5,-0.41614457964897156,-0.6026887893676758,0.007354156579822302,0.01914089173078537,-0.019939471036195755,-0.0009109976817853749,0.6238435506820679,-0.3433263897895813,3.831606149673462,-10.1675443649292,9.115615844726562,-16.308515548706055,45070.0,40947.0,43452.0,45140.0,-0.29999491024331576,-0.5196181808098181,0.5
0.349,TAKEOFF,none,1.0,0.6267359256744385,0.020644182339310646,0.000566813163459301,0.0026941413525491953,0.04053782671689987,-0.004731353837996721,-0.2726535499095917,0.28940349817276,-2.6712582111358643,0.15387366712093353,-1.6148898601531982,35.58785629272461,41984.0,37989.0,44105.0,42388.0,0.6,0.0,0.5,-0.5163908004760742,0.5373133420944214,0.007812632247805595,0.02366429567337036,-0.017696702852845192,0.004019094631075859,0.6764330267906189,-0.5648098587989807,0.8409035205841064,-4.9616570472717285,2.521078109741211,0.1390085220336914,42572.0,43098.0,42929.0,40686.0,-0.3000025448675481,0.51961377298239,0.5,-0.41614457964897156,-0.6026887893676758,0.007354156579822302,0.02087940275669098,-0.021545162424445152,-0.0007955822511576116,0.4721966087818146,-0.5196093320846558,3.324172258377075,-0.36553776264190674,1.3498718738555908,-6.924259185791016,45642.0,44020.0,43689.0,42179.0,-0.29999491024331576,-0.5196181808098181,0.5
0.37,TAKEOFF,none,1.0,0.6267359256744385,0.020644182339310646,0.000566813163459301,-0.00027232649154029787,0.04833487421274185,0.0011133624939247966,-0.29571324586868286,0.3270479142665863,-1.9676369428634644,4.82712459564209,7.645365238189697,39.730323791503906,44437.0,39961.0,43002.0,40190.0,0.6,0.0,0.5,-0.5163908004760742,0.5373133420944214,0.007812632247805595,0.017345532774925232,-0.01323236059397459,0.012263068929314613,0.5762761831283569,-0.5178182125091553,0.8394712805747986,1.0288983583450317,-6.777788162231445,0.9887544512748718,43463.0,41424.0,42352.0,42426.0,-0.3000025448675481,0.51961377298239,0.5,-0.41620132327079773,-0.6038306951522827,0.007905793376266956,0.019582943990826607,-0.028013786301016808,0.004875365179032087,0.4721966087818146,-0.5196093320846558,3.324172258377075,-0.36553776264190674,1.3498718738555908,-6.924259185791016,46605.0,42959.0,43643.0,43515.0,-0.29999491024331576,-0.5196181808098181,0.5
0.389,TAKEOFF,none,1.0,0.6267359256744385,0.020644182339310646,0.000566813163459301,-0.0009897437412291765,0.051983799785375595,-0.003920110408216715,-0.03354595974087715,-0.015367626212537289,-0.27376773953437805,-12.77992057800293,-10.015016555786133,18.67305564880371,40949.0,37282.0,46238.0,43150.0,0.6,0.0,0.5,-0.5163908004760742,0.5373133420944214,0.007812632247805595,0.016188614070415497,-0.011129618622362614,0.015355171635746956,0.5976765155792236,-0.49164050817489624,0.8204076886177063,1.775155782699585,-3.6552700996398926,5.066255569458008,45638.0,43139.0,40971.0,40801.0,-0.3000025448675481,0.51961377298239,0.5,-0.41620132327079773,-0.6038306951522827,0.007905793376266956,0.02078964188694954,-0.030029471963644028,0.004890320356935263,0.5416659116744995,-0.46570587158203125,3.134427547454834,2.8533167839050293,-4.367940425872803,-8.988526344299316,46023.0,43573.0,44226.0,43668.0,-0.29999491024331576,-0.5196181808098181,0.5
0.409,TAKEOFF,none,1.0,0.6267359256744385,0.020644182339310646,0.000566813163459301,-0.015131717547774315,0.03917960822582245,-0.005657089874148369,-0.1320263296365738,0.2911827862262726,0.14599481225013733,-10.840743064880371,-10.222935676574707,34.94566345214844,42237.0,42125.0,44845.0,40493.0,0.6,0.0,0.5,-0.5163908004760742,0.5373133420944214,0.007812632247805595,0.0215659998357296,-0.017011316493153572,0.012450993992388248,0.6399019956588745,-0.4681854248046875,0.879465639591217,-2.0106444358825684,1.8274388313293457,-0.3840530812740326,46217.0,42985.0,40526.0,41976.0,-0.3000025448675481,0.51961377298239,0.5,-0.41620132327079773,-0.6038306951522827,0.007905793376266956,0.022521136328577995,-0.03180032595992088,0.007147294003516436,0.40008267760276794,-0.5151833891868591,2.9235117435455322,8.034320831298828,-13.084993362426758,-4.3141632080078125,47149.0,41157.0,44031.0,45585.0,-0.29999491024331576,-0.5196181808098181,0.5
0.429,TAKEOFF,none,1.0,0.6238548159599304,0.026001401245594025,0.0020736821461468935,-0.01513927523046732,0.039036497473716736,0.0032209588680416346,-0.1320263296365738,0.2911827862262726,0.14599481225013733,-10.840743064880371,-10.222935676574707,34.94566345214844,42830.0,40708.0,46042.0,41055.0,0.6,0.0,0.5,-0.5163908004760742,0.5373133420944214,0.007812632247805595,0.018628954887390137,-0.015322756953537464,0.00985694956034422,0.5926897525787354,-0.40205928683280945,0.9452266097068787,-0.912013053894043,1.8172434568405151,7.093641757965088,46524.0,42957.0,41124.0,41910.0,-0.3000025448675481,0.51961377298239,0.5,-0.41620132327079773,-0.6038306951522827,0.007905793376266956,0.015541649423539639,-0.02730182558298111,0.0006814149674028158,0.40008267760276794,-0.5151833891868591,2.9235117435455322,8.034320831298828,-13.084993362426758,-4.3141632080078125,46472.0,45293.0,45175.0,42431.0,-0.29999491024331576,-0.5196181808098181,0.5
0.449,TAKEOFF,none,1.0,0.6238548159599304,0.026001401245594025,0.0020736821461468935,-0.014873553067445755,0.040055226534605026,-0.0015924611361697316,-0.30164575576782227,0.4824608564376831,0.7499077916145325,3.962847948074341,-6.754152774810791,23.29665184020996,43739.0,38948.0,45484.0,43014.0,0.6,0.0,0.5,-0.5156906843185425,0.5372879505157471,0.008917508646845818,0.01999755948781967,-0.017413632944226265,0.012636888772249222,0.6335422992706299,-0.3868770897388458,1.0709049701690674,1.128968358039856,-5.022844314575195,7.837722301483154,45418.0,43312.0,43026.0,41880.0,-0.3000025448675481,0.51961377298239,0.5,-0.41620132327079773,-0.6038306951522827,0.007905793376266956,0.016913099214434624,-0.028977172449231148,0.0012372528435662389,0.6208189129829407,-0.20104975998401642,2.599391460418701,2.200284719467163,-1.6970547437667847,1.749380111694336,45834.0,45952.0,45371.0,43237.0,-0.29999491024331576,-0.5196181808098181,0.5
0.469,TAKEOFF,none,1.0,0.6238548159599304,0.026001401245594025,0.0020736821461468935,-0.014810998924076557,0.04086827114224434,-0.00023474755289498717,-0.021460315212607384,0.14951539039611816,1.7525941133499146,5.840555191040039,5.00973653793335,15.630789756774902,46596.0,38115.0,43373.0,43991.0,0.6,0.0,0.5,-0.5156906843185425,0.5372879505157471,0.008917508646845818,0.02138880081474781,-0.01966620422899723,0.01429825834929943,0.7263925671577454,-0.34453144669532776,1.1456196308135986,-0.37901556491851807,-1.6074960231781006,0.6317908763885498,45149.0,43677.0,43168.0,42991.0,-0.3000025448675481,0.51961377298239,0.5,-0.4128095805644989,-0.6070249676704407,0.007324370089918375,0.02657320350408554,-0.03312678635120392,-0.001770348520949483,0.6208189129829407,-0.20104975998401642,2.599391460418701,2.200284719467163,-1.6970547437667847,1.749380111694336,47703.0,43813.0,45432.0,44617.0,-0.29999491024331576,-0.5196181808098181,0.5
0.489,TAKEOFF,none,1.0,0.6238548159599304,0.026001401245594025,0.0020736821461468935,-0.004472085274755955,0.04190846532583237,0.0012496921699494123,-0.021460315212607384,0.14951539039611816,1.7525941133499146,5.840555191040039,5.00973653793335,15.630789756774902,43238.0,43065.0,46220.0,41136.0,0.6,0.0,0.5,-0.5156906843185425,0.5372879505157471,0.008917508646845818,0.025704100728034973,-0.02679566480219364,0.01051056943833828,0.7132334113121033,-0.27706146240234375,1.1372344493865967,-0.5329792499542236,-2.6968045234680176,-4.032033920288086,45409.0,44440.0,43249.0,42523.0,-0.3000025448675481,0.51961377298239,0.5,-0.4128095805644989,-0.6070249676704407,0.007324370089918375,0.02787478268146515,-0.03514990955591202,-0.0016128703719004989,0.558815062046051,-0.4156026542186737,2.703620195388794,-16.450157165527344,20.730985641479492,1.1972463130950928,48595.0,40248.0,45709.0,47411.0,-0.29999491024331576,-0.5196181808098181,0.5
0.509,TAKEOFF,none,1.0,0.6238548159599304,0.026001401245594025,0.0020736821461468935,-0.008833850733935833,0.04128241166472435,-0.003524897852912545,0.3767821788787842,0.11954069882631302,2.278040885925293,-3.9080965518951416,22.82763671875,10.409289360046387,44930.0,43395.0,44811.0,41773.0,0.6,0.0,0.5,-0.5156906843185425,0.5372879505157471,0.008917508646845818,0.012922801077365875,-0.022062689065933228,0.020529016852378845,0.6177020072937012,-0.11009692400693893,1.1182069778442383,-4.804418087005615,-7.440408229827881,-2.3359851837158203,45166.0,45242.0,43751.0,42243.0,-0.3000025448675481,0.51961377298239,0.5,-0.4128095805644989,-0.6070249676704407,0.007324370089918375,0.030183544382452965,-0.03629361465573311,0.0021331238094717264,0.34753531217575073,-0.6608120799064636,2.7116763591766357,10.513344764709473,-10.033873558044434,2.2218236923217773,49214.0,45412.0,44927.0,43699.0,-0.29999491024331576,-0.5196181808098181,0.5
0.529,TAKEOFF,none,1.0,0.6238548159599304,0.026001401245594025,0.0020736821461468935,-0.008800954557955265,0.04001687094569206,-0.00610748864710331,0.3767821788787842,0.11954069882631302,2.278040885925293,-3.9080965518951416,22.82763671875,10.409289360046387,38039.0,42577.0,50402.0,43341.0,0.6,0.0,0.5,-0.5156906843185425,0.5372879505157471,0.008917508646845818,0.008885999210178852,-0.02064049057662487,0.027369383722543716,0.5142187476158142,0.11364632099866867,1.108520746231079,11.450385093688965,-17.293180465698242,-4.248824596405029,45945.0,44172.0,42758.0,44273.0,-0.3000025448675481,0.51961377298239,0.5,-0.4128095805644989,-0.6070249676704407,0.007324370089918375,0.01675066165626049,-0.01982220821082592,-0.0036689103581011295,0.3037755489349365,-0.39535513520240784,2.7169697284698486,4.217845439910889,-2.0507516860961914,0.41053909063339233,50878.0,46718.0,42912.0,43926.0,-0.29999491024331576,-0.5196181808098181,0.5
0.549,TAKEOFF,none,1.0,0.6267901062965393,0.030231544747948647,0.0028757634572684765,-0.00876208022236824,0.03862612694501877,-0.007192426361143589,0.18481142818927765,0.2638903260231018,2.484360456466675,-15.148774147033691,-7.376433372497559,5.022469997406006,44245.0,44858.0,46286.0,41960.0,0.6,0.0,0.5,-0.5180234313011169,0.5365342497825623,0.011126397177577019,0.00819340255111456,-0.022585678845643997,0.03814207762479782,0.6402544975280762,0.3934611678123474,1.0159374475479126,6.7806525230407715,-20.939149856567383,-5.594085216522217,44241.0,47500.0,44898.0,40593.0,-0.3000025448675481,0.51961377298239,0.5,-0.4128095805644989,-0.6070249676704407,0.007324370089918375,0.013698208145797253,-0.017458373680710793,-0.0008848899160511792,0.41596683859825134,-0.25852102041244507,2.8517520427703857,13.446948051452637,-10.62995433807373,11.111557006835938,50059.0,46712.0,48237.0,39800.0,-0.29999491024331576,-0.5196181808098181,0.5
0.57,TAKEOFF,none,1.0,0.6267901062965393,0.030231544747948647,0.0028757634572684765,-0.008981737308204174,0.04073942080140114,-0.0026842968072742224,-0.02762891910970211,0.47770148515701294,2.6239919662475586,-15.218973159790039,-5.544077396392822,9.86872673034668,42926.0,44998.0,48072.0,41785.0,0.6,0.0,0.5,-0.5180234313011169,0.5365342497825623,0.011126397177577019,0.006588212214410305,-0.025005197152495384,0.043973807245492935,0.7846805453300476,0.8056250214576721,0.8938698172569275,6.3638596534729,-24.878746032714844,-0.9917024374008179,45458.0,46514.0,44341.0,41992.0,-0.3000025448675481,0.51961377298239,0.5,-0.41364508867263794,-0.606736421585083,0.006470999680459499,0.013971707783639431,-0.019528081640601158,-0.00484293419867754,0.675362765789032,0.020301643759012222,3.073159694671631,-12.305435180664062,6.689235687255859,6.177633285522461,50003.0,38784.0,48621.0,48384.0,-0.29999491024331576,-0.5196181808098181,0.5
0.589,TAKEOFF,none,1.0,0.6267901062965393,0.030231544747948647,0.0028757634572684765,-0.009202287532389164,0.04267660528421402,0.0011273423442617059,-0.02762891910970211,0.47770148515701294,2.6239919662475586,-15.218973159790039,-5.544077396392822,9.86872673034668,44317.0,44512.0,47877.0,42131.0,0.6,0.0,0.5,-0.5180234313011169,0.5365342497825623,0.011126397177577019,0.00307972333393991,-0.028129909187555313,0.05064898356795311,0.9343466758728027,1.3274869918823242,0.853779673576355,11.256813049316406,-21.145347595214844,-2.1469779014587402,45458.0,46514.0,44341.0,41992.0,-0.3000025448675481,0.51961377298239,0.5,-0.41364508867263794,-0.606736421585083,0.006470999680459499,0.014664613641798496,-0.020988017320632935,-0.007866915315389633,0.3611559569835663,-0.28433164954185486,3.183577060699463,-17.896570205688477,23.844919204711914,2.006105899810791,50225.0,42448.0,47624.0,47936.0,-0.29999491024331576,-0.5196181808098181,0.5
0.609,TAKEOFF,none,1.0,0.6267901062965393,0.030231544747948647,0.0028757634572684765,-0.010104324668645859,0.04013483226299286,-0.006654690485447645,-0.20045799016952515,0.6629073023796082,3.062967538833618,10.595586776733398,-5.220368385314941,7.173191070556641,45159.0,43247.0,47962.0,43766.0,0.6,0.0,0.5,-0.5180234313011169,0.5365342497825623,0.011126397177577019,-0.009647458791732788,-0.026604317128658295,0.05245552211999893,1.1367865800857544,1.7065759897232056,0.7913375496864319,19.2412166595459,-18.794422149658203,-3.1931209564208984,46599.0,49017.0,44180.0,40070.0,-0.3000025448675481,0.51961377298239,0.5,-0.41364508867263794,-0.606736421585083,0.006470999680459499,0.012468060478568077,-0.02824273519217968,0.010808750055730343,0.2737695872783661,-0.40136614441871643,3.2768421173095703,11.908829689025879,-28.162464141845703,8.78740406036377,48784.0,47655.0,50503.0,41628.0,-0.29999491024331576,-0.5196181808098181,0.5
0.629,TAKEOFF,none,1.0,0.6267901062965393,0.030231544747948647,0.0028757634572684765,-0.012430117465555668,0.04055925831198692,-0.010035782121121883,-0.20045799016952515,0.6629073023796082,3.062967538833618,10.595586776733398,-5.220368385314941,7.173191070556641,47541.0,41982.0,45960.0,46163.0,0.6,0.0,0.5,-0.5180234313011169,0.5365342497825623,0.011126397177577019,-0.007451355457305908,-0.04210396483540535,0.0474727638065815,1.4933128356933594,2.1054933071136475,0.7219520807266235,20.251293182373047,-18.8768367767334,-0.9650270938873291,44815.0,49917.0,46226.0,39291.0,-0.3000025448675481,0.51961377298239,0.5,-0.41364508867263794,-0.606736421585083,0.006470999680459499,0.012355350889265537,-0.029860587790608406,0.014843647368252277,0.4999453127384186,0.18114976584911346,3.3778469562530518,21.017210006713867,-17.37955665588379,4.858619213104248,51437.0,49176.0,47444.0,41032.0,-0.29999491024331576,-0.5196181808098181,0.5
0.649,TAKEOFF,none,1.0,0.6264811158180237,0.034258272498846054,0.0032985489815473557,-0.01426167506724596,0.040064893662929535,-0.0016840548487380147,0.6593238711357117,0.19406816363334656,3.34842848777771,34.8526496887207,28.0637264251709,4.635581016540527,50886.0,46459.0,42834.0,41849.0,0.6,0.0,0.5,-0.5192198157310486,0.5338556170463562,0.013796953484416008,-0.023298976942896843,-0.04136434942483902,0.05493474751710892,1.8525841236114502,2.600290298461914,0.6872255206108093,14.561080932617188,-33.486961364746094,-3.607525587081909,44815.0,49917.0,46226.0,39291.0,-0.3000025448675481,0.51961377298239,0.5,-0.41364508867263794,-0.606736421585083,0.006470999680459499,0.047876980155706406,-0.055614374577999115,0.02365666814148426,0.9944754838943481,0.3937279284000397,3.4558334350585938,23.271987915039062,3.0921480655670166,2.484238624572754,51546.0,46836.0,47323.0,45179.0,-0.29999491024331576,-0.5196181808098181,0.5
0.669,TAKEOFF,none,1.0,0.6264811158180237,0.034258272498846054,0.0032985489815473557,0.02957066148519516,0.02518710307776928,0.006848929449915886,0.6593238711357117,0.19406816363334656,3.34842848777771,34.8526496887207,28.0637264251709,4.635581016540527,44776.0,47303.0,48805.0,42663.0,0.6,0.0,0.5,-0.5192198157310486,0.5338556170463562,0.013796953484416008,-0.032989755272865295,-0.04835009202361107,0.06158871576189995,2.1194164752960205,3.2223060131073,0.5949347615242004,12.291267395019531,-28.034914016723633,-3.909146785736084,46794.0,50733.0,44836.0,39128.0,-0.3000025448675481,0.51961377298239,0.5,-0.4102303385734558,-0.6114600300788879,0.008424337022006512,0.047876980155706406,-0.055614374577999115,0.02365666814148426,1.4542944431304932,0.014525498263537884,3.556447744369507,12.646893501281738,28.209617614746094,2.369969606399536,53416.0,45677.0,45141.0,47163.0,-0.29999491024331576,-0.5196181808098181,0.5
0.691,TAKEOFF,none,1.0,0.6264811158180237,0.034258272498846054,0.0032985489815473557,0.03043835237622261,0.020438358187675476,0.011272665113210678,1.2417843341827393,-0.2777990400791168,3.2556354999542236,27.180845260620117,-20.42797088623047,-3.233001470565796,46747.0,48539.0,47460.0,41556.0,0.6,0.0,0.5,-0.5192198157310486,0.5338556170463562,0.013796953484416008,-0.044791772961616516,-0.05609826371073723,0.06625160574913025,2.438333749771118,3.60359787940979,0.46943578124046326,9.462241172790527,6.890801906585693,-1.8429237604141235,48397.0,48065.0,43519.0,43647.0,-0.3000025448675481,0.51961377298239,0.5,-0.4102303385734558,-0.6114600300788879,0.008424337022006512,0.04668237268924713,-0.05603669956326485,0.016586773097515106,1.5813171863555908,-0.6535504460334778,3.6293907165527344,0.5375585556030273,37.33808135986328,1.3695759773254395,53937.0,45321.0,45482.0,47737.0,-0.29999491024331576,-0.5196181808098181,0.5
0.709,TAKEOFF,none,1.0,0.6264811158180237,0.034258272498846054,0.0032985489815473557,0.02381172776222229,0.03215351328253746,0.018022924661636353,2.188025712966919,0.9270197749137878,3.085721254348755,25.075000762939453,-45.898170471191406,-8.512116432189941,44983.0,48876.0,49121.0,42131.0,0.6,0.0,0.5,-0.5192198157310486,0.5338556170463562,0.013796953484416008,-0.053119465708732605,-0.0660952627658844,0.06523150950670242,2.6122334003448486,3.5099833011627197,0.414782851934433,-4.483355522155762,24.913110733032227,-4.992686748504639,47787.0,47617.0,45017.0,45075.0,-0.3000025448675481,0.51961377298239,0.5,-0.4102303385734558,-0.6114600300788879,0.008424337022006512,0.04411930963397026,-0.05146976560354233,0.016621841117739677,1.5230642557144165,-1.4147273302078247,3.693087339401245,-8.240188598632812,31.2344913482666,-2.8937125205993652,53061.0,45776.0,46325.0,49075.0,-0.29999491024331576,-0.5196181808098181,0.5
0.729,TAKEOFF,none,1.0,0.6338484883308411,0.037927787750959396,0.003969109151512384,0.020181411877274513,0.023883717134594917,0.021770773455500603,2.188025712966919,0.9270197749137878,3.085721254348755,25.075000762939453,-45.898170471191406,-8.512116432189941,45910.0,50747.0,48480.0,40044.0,0.6,0.0,0.5,-0.5192198157310486,0.5338556170463562,0.013796953484416008,-0.058317892253398895,-0.07855628430843353,0.06829480826854706,2.500181198120117,2.9735889434814453,0.3187764286994934,-28.089725494384766,24.53223991394043,-2.9494471549987793,46584.0,47574.0,46559.0,45780.0,-0.3000025448675481,0.51961377298239,0.5,-0.4102303385734558,-0.6114600300788879,0.008424337022006512,0.04840971156954765,-0.052745748311281204,0.01702554151415825,1.3253921270370483,-1.8651756048202515,3.640002727508545,-2.9049530029296875,10.728850364685059,-4.442914962768555,52893.0,48391.0,46270.0,47923.0,-0.29999491024331576,-0.5196181808098181,0.5
0.749,TAKEOFF,none,1.0,0.6338484883308411,0.037927787750959396,0.003969109151512384,0.020181411877274513,0.023883717134594917,0.021770773455500603,2.6929352283477783,1.8946329355239868,2.8764231204986572,31.590347290039062,-51.730712890625,-8.799999237060547,45477.0,49878.0,49080.0,42421.0,0.6,0.0,0.5,-0.5194106698036194,0.5272303819656372,0.016411220654845238,-0.06582456082105637,-0.08811261504888535,0.07807028293609619,1.932966947555542,2.4770667552948,0.20659740269184113,-45.78461456298828,21.48517608642578,-5.08540678024292,46584.0,47574.0,46559.0,45780.0,-0.3000025448675481,0.51961377298239,0.5,-0.4102303385734558,-0.6114600300788879,0.008424337022006512,0.0598619282245636,-0.05814766511321068,0.014003129675984383,1.0072212219238281,-1.9720567464828491,3.545414686203003,-36.36219024658203,1.4479280710220337,-5.314359188079834,51017.0,46225.0,48835.0,51039.0,-0.29999491024331576,-0.5196181808098181,0.5
0.77,TAKEOFF,none,1.0,0.6338484883308411,0.037927787750959396,0.003969109151512384,-0.03459072858095169,-0.021764257922768593,0.033258505165576935,3.2533700466156006,2.856466054916382,2.647643566131592,7.7970380783081055,-48.562679290771484,-8.040699005126953,41990.0,51265.0,51768.0,40538.0,0.6,0.0,0.5,-0.5194106698036194,0.5272303819656372,0.016411220654845238,-0.07241010665893555,-0.0943351536989212,0.08628690242767334,0.9960651993751526,2.06325364112854,0.13111475110054016,-47.01185607910156,29.74755096435547,-5.623753070831299,44766.0,46061.0,48524.0,47543.0,-0.3000025448675481,0.51961377298239,0.5,-0.4014917016029358,-0.6180496215820312,0.009756408631801605,0.0670667514204979,-0.05928311496973038,0.020381422713398933,0.24878399074077606,-2.0103604793548584,3.4254915714263916,-42.918338775634766,-3.2289605140686035,-5.4910664558410645,50897.0,46777.0,49357.0,51142.0,-0.29999491024331576,-0.5196181808098181,0.5
0.789,TAKEOFF,none,1.0,0.6338484883308411,0.037927787750959396,0.003969109151512384,-0.05018112063407898,-0.030536862090229988,0.04181528091430664,3.4891445636749268,4.129823684692383,2.4736857414245605,-9.470529556274414,-54.62432098388672,-8.576107025146484,41562.0,50506.0,52405.0,42141.0,0.6,0.0,0.5,-0.5194106698036194,0.5272303819656372,0.016411220654845238,-0.09410029649734497,-0.08781597763299942,0.10756834596395493,-0.03282151743769646,1.6156082153320312,0.06505575776100159,-30.812681198120117,33.550132751464844,-4.9499430656433105,46975.0,46956.0,46634.0,46999.0,-0.3000025448675481,0.51961377298239,0.5,-0.4014917016029358,-0.6180496215820312,0.009756408631801605,0.08134382963180542,-0.06294017285108566,0.02759554423391819,-0.5626441836357117,-1.8978310823440552,3.297149896621704,-41.63462448120117,-8.425684928894043,-6.030126571655273,50231.0,46693.0,50105.0,52073.0,-0.29999491024331576,-0.5196181808098181,0.5
0.809,TAKEOFF,none,1.0,0.6338484883308411,0.037927787750959396,0.003969109151512384,-0.047066763043403625,-0.04666012153029442,0.038366638123989105,3.076474905014038,5.4298577308654785,2.0572400093078613,-8.6827392578125,6.7131547927856445,0.4412039518356323,45066.0,49962.0,50777.0,43097.0,0.6,0.0,0.5,-0.5194106698036194,0.5272303819656372,0.016411220654845238,-0.09931757301092148,-0.08693941682577133,0.11975988745689392,-0.7015153765678406,0.9589864611625671,-0.01208331435918808,-15.669307708740234,30.916149139404297,-2.419004201889038,49796.0,48817.0,43712.0,45097.0,-0.3000025448675481,0.51961377298239,0.5,-0.4014917016029358,-0.6180496215820312,0.009756408631801605,0.07622671127319336,-0.042203426361083984,0.0416875034570694,-1.5228420495986938,-1.6324348449707031,3.2014427185058594,-38.56416702270508,-16.729904174804688,-6.1317853927612305,50788.0,48106.0,50146.0,51119.0,-0.29999491024331576,-0.5196181808098181,0.5
0.829,TAKEOFF,none,1.0,0.6338484883308411,0.037927787750959396,0.003969109151512384,-0.047066763043403625,-0.04666012153029442,0.038366638123989105,3.076474905014038,5.4298577308654785,2.0572400093078613,-8.6827392578125,6.7131547927856445,0.4412039518356323,48244.0,49343.0,48754.0,44232.0,0.6,0.0,0.5,-0.5194106698036194,0.5272303819656372,0.016411220654845238,-0.10874060541391373,-0.07647396624088287,0.13987164199352264,-0.9777141213417053,0.2780267596244812,-0.06615623831748962,1.4057700634002686,30.597803115844727,0.8081257343292236,48870.0,49345.0,45550.0,44523.0,-0.3000025448675481,0.51961377298239,0.5,-0.4014917016029358,-0.6180496215820312,0.009756408631801605,0.08425313234329224,-0.030263401567935944,0.06275876611471176,-2.070533037185669,-1.2348911762237549,3.0604934692382812,0.6288081407546997,-29.942689895629883,-11.175528526306152,51213.0,51792.0,48821.0,48626.0,-0.29999491024331576,-0.5196181808098181,0.5
0.849,TAKEOFF,none,1.0,0.6338484883308411,0.037927787750959396,0.003969109151512384,-0.047066763043403625,-0.04666012153029442,0.038366638123989105,3.076474905014038,5.4298577308654785,2.0572400093078613,-8.6827392578125,6.7131547927856445,0.4412039518356323,48244.0,49343.0,48754.0,44232.0,0.6,0.0,0.5,-0.5299316644668579,0.5204548239707947,0.028203126043081284,-0.09557823091745377,-0.07911286503076553,0.13805800676345825,-0.9382089376449585,-0.309330016374588,-0.06288985908031464,12.310084342956543,31.03632164001465,4.003411769866943,49858.0,48224.0,44960.0,45660.0,-0.3000025448675481,0.51961377298239,0.5,-0.4014917016029358,-0.6180496215820312,0.009756408631801605,0.08381468057632446,-0.019350003451108932,0.07884340733289719,-1.86208176612854,-0.5871292948722839,2.924334764480591,22.49811553955078,-31.419355392456055,-3.785475730895996,52885.0,51238.0,47928.0,48506.0,-0.29999491024331576,-0.5196181808098181,0.5
0.869,TAKEOFF,none,1.0,0.6338484883308411,0.037927787750959396,0.003969109151512384,-0.047066763043403625,-0.04666012153029442,0.038366638123989105,3.076474905014038,5.4298577308654785,2.0572400093078613,-8.6827392578125,6.7131547927856445,0.4412039518356323,48244.0,49343.0,48754.0,44232.0,0.6,0.0,0.5,-0.5299316644668579,0.5204548239707947,0.028203126043081284,-0.09593011438846588,-0.07506395131349564,0.15861983597278595,-0.7226426005363464,-0.927773118019104,-0.006368807051330805,7.203149795532227,34.78835678100586,4.296598434448242,50146.0,48219.0,44611.0,45605.0,-0.3000025448675481,0.51961377298239,0.5,-0.3949466645717621,-0.6178367733955383,0.014669886790215969,0.08381468057632446,-0.019350003451108932,0.07884340733289719,-1.3145751953125,-0.10374812036752701,2.886337995529175,42.46330642700195,-5.681553363800049,-1.85338294506073,55562.0,50703.0,45710.0,48264.0,-0.29999491024331576,-0.5196181808098181,0.5
0.889,TAKEOFF,none,1.0,0.6338484883308411,0.037927787750959396,0.003969109151512384,-0.047066763043403625,-0.04666012153029442,0.038366638123989105,3.076474905014038,5.4298577308654785,2.0572400093078613,-8.6827392578125,6.7131547927856445,0.4412039518356323,48244.0,49343.0,48754.0,44232.0,0.6,0.0,0.5,-0.5299316644668579,0.5204548239707947,0.028203126043081284,-0.09191449731588364,-0.07264741510152817,0.16948331892490387,-0.5696181058883667,-1.581121563911438,0.07568038254976273,-4.819761276245117,24.646650314331055,4.9999680519104,49200.0,47240.0,46164.0,46723.0,-0.3000025448675481,0.51961377298239,0.5,-0.3949466645717621,-0.6178367733955383,0.014669886790215969,0.08419990539550781,-0.013979436829686165,0.0917922705411911,-0.5039196014404297,-0.027842188253998756,2.879456043243408,34.9912223815918,1.1079984903335571,2.075878858566284,55546.0,49850.0,47005.0,48678.0,-0.29999491024331576,-0.5196181808098181,0.5
0.909,TAKEOFF,none,1.0,0.6338484883308411,0.037927787750959396,0.003969109151512384,-0.047066763043403625,-0.04666012153029442,0.038366638123989105,3.076474905014038,5.4298577308654785,2.0572400093078613,-8.6827392578125,6.7131547927856445,0.4412039518356323,48244.0,49343.0,48754.0,44232.0,0.6,0.0,0.5,-0.5299316644668579,0.5204548239707947,0.028203126043081284,-0.08579067885875702,-0.07052658498287201,0.17704056203365326,-0.7085757851600647,-2.0819873809814453,0.1716388463973999,-7.703670024871826,11.439892768859863,3.6888065338134766,48736.0,49388.0,46947.0,44583.0,-0.3000025448675481,0.51961377298239,0.5,-0.3949466645717621,-0.6178367733955383,0.014669886790215969,0.084995336830616,-0.01197965256869793,0.11057019233703613,0.08948735147714615,0.05345308408141136,2.9428493976593018,21.124216079711914,-16.18194580078125,4.762905120849609,54642.0,50495.0,49553.0,47324.0,-0.29999491024331576,-0.5196181808098181,0.5
0.929,TAKEOFF,none,1.0,0.6338484883308411,0.037927787750959396,0.003969109151512384,-0.047066763043403625,-0.04666012153029442,0.038366638123989105,3.076474905014038,5.4298577308654785,2.0572400093078613,-8.6827392578125,6.7131547927856445,0.4412039518356323,48244.0,49343.0,48754.0,44232.0,0.6,0.0,0.5,-0.5299316644668579,0.5204548239707947,0.028203126043081284,-0.07803183794021606,-0.06777555495500565,0.1870206892490387,-0.8722460269927979,-2.2691502571105957,0.2620369791984558,-12.359441757202148,-0.15005230903625488,8.3233642578125,48736.0,49388.0,46947.0,44583.0,-0.3000025448675481,0.51961377298239,0.5,-0.3949466645717621,-0.6178367733955383,0.014669886790215969,0.084995336830616,-0.01197965256869793,0.11057019233703613,0.42026710510253906,0.39591309428215027,3.040052890777588,1.931228518486023,-17.076093673706055,4.81089973449707,53883.0,48949.0,51007.0,48862.0,-0.29999491024331576,-0.5196181808098181,0.5
0.949,TAKEOFF,none,1.0,0.6338484883308411,0.037927787750959396,0.003969109151512384,-0.047066763043403625,-0.04666012153029442,0.038366638123989105,3.076474905014038,5.4298577308654785,2.0572400093078613,-8.6827392578125,6.7131547927856445,0.4412039518356323,48244.0,49343.0,48754.0,44232.0,0.6,0.0,0.5,-0.5382975935935974,0.5138909816741943,0.044568803161382675,-0.06984373182058334,-0.06431432068347931,0.19816437363624573,-1.0993489027023315,-2.2199716567993164,0.4281233251094818,-12.629027366638184,-9.28897476196289,12.021280288696289,48466.0,49734.0,47836.0,43970.0,-0.3000025448675481,0.51961377298239,0.5,-0.3949466645717621,-0.6178367733955383,0.014669886790215969,0.08387614041566849,-0.013373053632676601,0.12692025303840637,0.3087850511074066,0.7931176424026489,3.133957862854004,-13.711739540100098,-24.208072662353516,4.150026798248291,53777.0,49332.0,51206.0,48811.0,-0.29999491024331576,-0.5196181808098181,0.5
0.969,TAKEOFF,none,1.0,0.6338484883308411,0.037927787750959396,0.003969109151512384,-0.07615233957767487,-0.06454256922006607,0.04564124345779419,3.076474905014038,5.4298577308654785,2.0572400093078613,-8.6827392578125,6.7131547927856445,0.4412039518356323,48244.0,49343.0,48754.0,44232.0,0.6,0.0,0.5,-0.5382975935935974,0.5138909816741943,0.044568803161382675,-0.06197013333439827,-0.059967320412397385,0.21040676534175873,-1.3252544403076172,-2.046018600463867,0.6558908820152283,-3.496631145477295,-4.659079551696777,11.67992877960205,50023.0,49229.0,47068.0,44340.0,-0.3000025448675481,0.51961377298239,0.5,-0.38327085971832275,-0.6205735802650452,0.02637619897723198,0.10302940756082535,-0.02486417256295681,0.13838574290275574,-0.002666877582669258,1.098860740661621,3.283538579940796,-28.085182189941406,-18.164321899414062,6.709388732910156,53633.0,47395.0,52297.0,50069.0,-0.29999491024331576,-0.5196181808098181,0.5
0.989,TAKEOFF,none,1.0,0.6244804263114929,0.030226480215787888,0.010415460914373398,-0.07615233957767487,-0.06454256922006607,0.04564124345779419,2.9742350578308105,5.2600531578063965,2.0832691192626953,-3.9327430725097656,30.785293579101562,3.411200761795044,48244.0,49343.0,48754.0,44232.0,0.6,0.0,0.5,-0.5382975935935974,0.5138909816741943,0.044568803161382675,-0.05486079677939415,-0.05504998192191124,0.21850506961345673,-1.386963129043579,-1.9604014158248901,0.8887624144554138,1.6497125625610352,-1.6446444988250732,11.548489570617676,49911.0,49891.0,47737.0,43362.0,-0.3000025448675481,0.51961377298239,0.5,-0.38327085971832275,-0.6205735802650452,0.02637619897723198,0.08992773294448853,-0.01921899989247322,0.17275792360305786,-0.5652799606323242,1.3950551748275757,3.4305999279022217,-23.402904510498047,-10.208305358886719,6.9601240158081055,54653.0,48053.0,51494.0,49290.0,-0.29999491024331576,-0.5196181808098181,0.5
1.009,TAKEOFF,none,1.0,0.6244804263114929,0.030226480215787888,0.010415460914373398,-0.09377720206975937,-0.07563198357820511,0.051546547561883926,2.9742350578308105,5.2600531578063965,2.0832691192626953,-3.9327430725097656,30.785293579101562,3.411200761795044,48058.0,49054.0,49666.0,44809.0,0.6,0.0,0.5,-0.5382975935935974,0.5138909816741943,0.044568803161382675,-0.04794831946492195,-0.04999139532446861,0.2268088459968567,-1.3374391794204712,-2.1125667095184326,1.1105040311813354,2.6351959705352783,-4.7591400146484375,13.934757232666016,49911.0,49891.0,47737.0,43362.0,-0.3000025448675481,0.51961377298239,0.5,-0.38327085971832275,-0.6205735802650452,0.02637619897723198,0.08992773294448853,-0.01921899989247322,0.17275792360305786,-0.9798361659049988,1.6467947959899902,3.6098639965057373,-12.513070106506348,-16.14333152770996,10.408973693847656,54524.0,48406.0,52438.0,48332.0,-0.29999491024331576,-0.5196181808098181,0.5
1.029,TAKEOFF,none,1.0,0.6244804263114929,0.030226480215787888,0.010415460914373398,-0.09377720206975937,-0.07563198357820511,0.051546547561883926,2.9742350578308105,5.2600531578063965,2.0832691192626953,-3.9327430725097656,30.785293579101562,3.411200761795044,48058.0,49054.0,49666.0,44809.0,0.6,0.0,0.5,-0.5382975935935974,0.5138909816741943,0.044568803161382675,-0.0259707048535347,-0.032637808471918106,0.22476908564567566,-1.3895108699798584,-2.037475824356079,1.3859719038009644,0.959392786026001,-4.068896293640137,14.760229110717773,50793.0,48914.0,48072.0,45537.0,-0.3000025448675481,0.51961377298239,0.5,-0.38327085971832275,-0.6205735802650452,0.02637619897723198,0.07427851110696793,-0.010814288631081581,0.20601816475391388,-1.202331781387329,2.056528091430664,3.850510358810425,-3.8985891342163086,-21.699193954467773,11.143856048583984,53920.0,50240.0,52156.0,48330.0,-0.29999491024331576,-0.5196181808098181,0.5
1.049,TAKEOFF,none,1.0,0.6244804263114929,0.030226480215787888,0.010415460914373398,-0.09377720206975937,-0.07563198357820511,0.051546547561883926,2.9742350578308105,5.2600531578063965,2.0832691192626953,-3.9327430725097656,30.785293579101562,3.411200761795044,48058.0,49054.0,49666.0,44809.0,0.6,0.0,0.5,-0.5404579639434814,0.5115781426429749,0.06253313273191452,-0.016957255080342293,-0.022775501012802124,0.2337723821401596,-1.3989089727401733,-1.9879891872406006,1.704206943511963,-2.0648562908172607,-0.764676570892334,14.256720542907715,51029.0,48857.0,47972.0,45353.0,-0.3000025448675481,0.51961377298239,0.5,-0.38327085971832275,-0.6205735802650452,0.02637619897723198,0.05959957838058472,-0.01367772463709116,0.22851206362247467,-1.2381242513656616,2.259148359298706,3.963456869125366,-4.744847297668457,-10.12574577331543,10.14126205444336,54958.0,48870.0,51149.0,49800.0,-0.29999491024331576,-0.5196181808098181,0.5
1.069,TAKEOFF,none,1.0,0.6244804263114929,0.030226480215787888,0.010415460914373398,-0.09377720206975937,-0.07563198357820511,0.051546547561883926,2.9742350578308105,5.2600531578063965,2.0832691192626953,-3.9327430725097656,30.785293579101562,3.411200761795044,48058.0,49054.0,49666.0,44809.0,0.6,0.0,0.5,-0.5404579639434814,0.5115781426429749,0.06253313273191452,-0.008340710774064064,-0.015239841304719448,0.24166691303253174,-1.48598051071167,-1.9784026145935059,2.0307302474975586,-8.815855979919434,-2.484835386276245,13.812124252319336,51582.0,47878.0,47594.0,46462.0,-0.3000025448675481,0.51961377298239,0.5,-0.38327085971832275,-0.6205735802650452,0.02637619897723198,0.05959957838058472,-0.01367772463709116,0.22851206362247467,-1.297256588935852,2.5422041416168213,4.21456241607666,-2.1101903915405273,0.16676858067512512,7.8566575050354,54704.0,48965.0,51265.0,49712.0,-0.29999491024331576,-0.5196181808098181,0.5
1.089,TAKEOFF,none,1.0,0.6244804263114929,0.030226480215787888,0.010415460914373398,-0.09377720206975937,-0.07563198357820511,0.051546547561883926,2.9742350578308105,5.2600531578063965,2.0832691192626953,-3.9327430725097656,30.785293579101562,3.411200761795044,48058.0,49054.0,49666.0,44809.0,0.6,0.0,0.5,-0.5404579639434814,0.5115781426429749,0.06253313273191452,-0.0036723020020872355,-0.007625345606356859,0.25695183873176575,-1.6954175233840942,-1.9431620836257935,2.274329423904419,-13.355963706970215,-0.9757308959960938,11.411824226379395,50316.0,48501.0,49064.0,45813.0,-0.3000025448675481,0.51961377298239,0.5,-0.3773231506347656,-0.6227210760116577,0.047722090035676956,0.05109180882573128,-0.007979368790984154,0.24847526848316193,-1.3247085809707642,2.523792266845703,4.297794342041016,5.806027412414551,4.029128551483154,4.8743414878845215,55323.0,49453.0,50292.0,49352.0,-0.29999491024331576,-0.5196181808098181,0.5
1.109,TAKEOFF,none,1.0,0.6244804263114929,0.030226480215787888,0.010415460914373398,-0.09377720206975937,-0.07563198357820511,0.051546547561883926,2.9742350578308105,5.2600531578063965,2.0832691192626953,-3.9327430725097656,30.785293579101562,3.411200761795044,48058.0,49054.0,49666.0,44809.0,0.6,0.0,0.5,-0.5404579639434814,0.5115781426429749,0.06253313273191452,0.0028397892601788044,-0.00010269990161759779,0.2693359851837158,-1.9224631786346436,-1.9269286394119263,2.498394727706909,-3.1343305110931396,-0.043688807636499405,8.294193267822266,50676.0,48276.0,48720.0,46107.0,-0.3000025448675481,0.51961377298239,0.5,-0.3773231506347656,-0.6227210760116577,0.047722090035676956,0.03224296122789383,-0.00024389055033680052,0.2780100405216217,-1.2249339818954468,2.4516491889953613,4.393694877624512,7.1396026611328125,2.980703830718994,4.08964729309082,55001.0,49508.0,50697.0,49340.0,-0.29999491024331576,-0.5196181808098181,0.5
1.129,TAKEOFF,none,1.0,0.6244804263114929,0.030226480215787888,0.010415460914373398,-0.09377720206975937,-0.07563198357820511,0.051546547561883926,2.9742350578308105,5.2600531578063965,2.0832691192626953,-3.9327430725097656,30.785293579101562,3.411200761795044,48058.0,49054.0,49666.0,44809.0,0.6,0.0,0.5,-0.5404579639434814,0.5115781426429749,0.06253313273191452,0.009402294643223286,0.007206298410892487,0.27854299545288086,-1.969351053237915,-1.8990938663482666,2.675790548324585,5.177088260650635,-0.9202038645744324,9.32174301147461,52390.0,48347.0,46915.0,46302.0,-0.3000025448675481,0.51961377298239,0.5,-0.3773231506347656,-0.6227210760116577,0.047722090035676956,0.03224296122789383,-0.00024389055033680052,0.2780100405216217,-1.066970705986023,2.3828604221343994,4.48394775390625,9.101642608642578,3.3977010250091553,4.908203125,55301.0,49511.0,50559.0,49212.0,-0.29999491024331576,-0.5196181808098181,0.5
1.149,TAKEOFF,none,1.0,0.6244804263114929,0.030226480215787888,0.010415460914373398,-0.09377720206975937,-0.07563198357820511,0.051546547561883926,2.9742350578308105,5.2600531578063965,2.0832691192626953,-3.9327430725097656,30.785293579101562,3.411200761795044,48058.0,49054.0,49666.0,44809.0,0.6,0.0,0.5,-0.5420607328414917,0.5125136375427246,0.08872084319591522,0.01608932390809059,0.013715834356844425,0.28593710064888,-1.8385570049285889,-1.9399298429489136,2.815415620803833,14.617984771728516,6.578790664672852,6.414254665374756,52390.0,48347.0,46915.0,46302.0,-0.3000025448675481,0.51961377298239,0.5,-0.3773231506347656,-0.6227210760116577,0.047722090035676956,0.04828270152211189,-0.011399554088711739,0.2827203869819641,-0.729749321937561,2.1254491806030273,4.592769622802734,9.42241382598877,2.8228025436401367,3.605233907699585,55851.0,50195.0,50080.0,48861.0,-0.29999491024331576,-0.5196181808098181,0.5
1.169,TAKEOFF,none,1.0,0.6244804263114929,0.030226480215787888,0.010415460914373398,-0.09377720206975937,-0.07563198357820511,0.051546547561883926,2.8368594646453857,4.640742778778076,2.1995010375976562,-10.363561630249023,33.21327209472656,5.110007286071777,48009.0,48759.0,49877.0,45195.0,0.6,0.0,0.5,-0.5420607328414917,0.5125136375427246,0.08872084319591522,0.025216372683644295,0.020121868699789047,0.3008840084075928,-1.5282689332962036,-2.093512535095215,2.96004319190979,22.03377342224121,-2.085630416870117,5.253813743591309,51472.0,50086.0,47643.0,45129.0,-0.3000025448675481,0.51961377298239,0.5,-0.3653367757797241,-0.6269856095314026,0.0765458196401596,0.04945135861635208,-0.017535381019115448,0.30445632338523865,-0.4743407666683197,1.988677740097046,4.629347801208496,0.8633541464805603,-3.209360122680664,3.431519031524658,54603.0,49620.0,50723.0,50254.0,-0.29999491024331576,-0.5196181808098181,0.5
1.189,TAKEOFF,none,1.0,0.6244804263114929,0.030226480215787888,0.010415460914373398,-0.09534537047147751,-0.09159398078918457,0.056311771273612976,2.6687514781951904,3.816918134689331,2.2126858234405518,-7.011916637420654,33.223812103271484,5.890928268432617,46656.0,49769.0,50837.0,43716.0,0.6,0.0,0.5,-0.5420607328414917,0.5125136375427246,0.08872084319591522,0.03298066928982735,0.023072589188814163,0.304330050945282,-1.0686246156692505,-2.0530877113342285,3.049489736557007,17.688173294067383,-17.048473358154297,5.544034004211426,50824.0,51059.0,48688.0,44133.0,-0.3000025448675481,0.51961377298239,0.5,-0.3653367757797241,-0.6269856095314026,0.0765458196401596,0.04009095951914787,-0.011478004045784473,0.31964442133903503,-0.42424967885017395,2.0196774005889893,4.712798118591309,-18.306400299072266,-13.111077308654785,4.716448783874512,54007.0,49218.0,52622.0,49818.0,-0.29999491024331576,-0.5196181808098181,0.5
1.209,TAKEOFF,none,1.0,0.6244804263114929,0.030226480215787888,0.010415460914373398,-0.14077496528625488,-0.11346350610256195,0.10517732799053192,2.1413207054138184,2.8775131702423096,2.496321201324463,-20.17909049987793,26.787939071655273,7.243831157684326,46882.0,47112.0,50829.0,46092.0,0.6,0.0,0.5,-0.5420607328414917,0.5125136375427246,0.08872084319591522,0.0395970456302166,0.025132611393928528,0.3078244626522064,-0.6039235591888428,-1.8067328929901123,3.0840961933135986,8.195633888244629,-21.7310791015625,3.989685297012329,51453.0,50696.0,48897.0,44728.0,-0.3000025448675481,0.51961377298239,0.5,-0.3653367757797241,-0.6269856095314026,0.0765458196401596,0.031555380672216415,-0.008807375095784664,0.3255206346511841,-0.8230936527252197,2.2691826820373535,4.764166831970215,-22.450971603393555,-14.213565826416016,3.893303632736206,54381.0,49370.0,52188.0,49661.0,-0.29999491024331576,-0.5196181808098181,0.5
1.229,TAKEOFF,none,1.0,0.6119329929351807,0.020970230922102928,0.020555734634399414,-0.14788517355918884,-0.11890707165002823,0.1068117618560791,0.8984411954879761,1.6804237365722656,2.831655263900757,-35.7073974609375,29.340085983276367,6.270095348358154,44938.0,47915.0,52245.0,44793.0,0.6,0.0,0.5,-0.5420607328414917,0.5125136375427246,0.08872084319591522,0.05564502626657486,0.014831054024398327,0.31102463603019714,-0.43671733140945435,-1.3546392917633057,3.120093822479248,-2.2626147270202637,-21.103918075561523,1.632131814956665,50813.0,50428.0,49611.0,45211.0,-0.3000025448675481,0.51961377298239,0.5,-0.3653367757797241,-0.6269856095314026,0.0765458196401596,-0.0016543158562853932,0.01229549665004015,0.31868141889572144,-1.2926998138427734,2.554989814758301,4.84668493270874,-12.706343650817871,-12.167508125305176,2.90312123298645,54742.0,50023.0,51969.0,49290.0,-0.29999491024331576,-0.5196181808098181,0.5
1.249,TAKEOFF,none,1.0,0.6119329929351807,0.020970230922102928,0.020555734634399414,-0.1332932710647583,-0.10274403542280197,0.11619052290916443,-0.624415397644043,0.5513805747032166,3.0403780937194824,-27.05280303955078,22.515634536743164,5.274641036987305,48304.0,48718.0,50115.0,44229.0,0.6,0.0,0.5,-0.5369669198989868,0.5123524069786072,0.1180095449090004,0.0520024411380291,0.023334026336669922,0.32563841342926025,-0.5147457122802734,-0.9162052869796753,3.1827964782714844,-12.026168823242188,-19.07615852355957,1.969771385192871,50218.0,49297.0,50290.0,46767.0,-0.3000025448675481,0.51961377298239,0.5,-0.3653367757797241,-0.6269856095314026,0.0765458196401596,-0.012095930054783821,0.01685396581888199,0.3250775635242462,-1.7727450132369995,2.9681556224823,4.926630020141602,-12.248955726623535,-12.785512924194336,3.1644668579101562,53969.0,50143.0,53391.0,49650.0,-0.29999491024331576,-0.5196181808098181,0.5
1.269,TAKEOFF,none,1.0,0.6028751134872437,0.012407449074089527,0.033633213490247726,-0.131877601146698,-0.09697354584932327,0.1167658120393753,-1.1157448291778564,-0.6687725186347961,3.1354689598083496,10.737751960754395,44.9248161315918,1.172576665878296,50681.0,49233.0,49268.0,46283.0,0.6,0.0,0.5,-0.5369669198989868,0.5123524069786072,0.1180095449090004,0.06338717043399811,0.020884353667497635,0.3251829743385315,-0.7605055570602417,-0.5275522470474243,3.2246201038360596,-15.539327621459961,-11.867530822753906,0.8360832929611206,51059.0,49753.0,48937.0,46271.0,-0.3000025448675481,0.51961377298239,0.5,-0.3690335154533386,-0.6217139363288879,0.10721497237682343,-0.022951137274503708,0.023003963753581047,0.3307983875274658,-2.015106201171875,3.1949682235717773,4.95416259765625,-7.044688701629639,-5.625636577606201,1.7820638418197632,54517.0,49812.0,52784.0,50152.0,-0.29999491024331576,-0.5196181808098181,0.5
1.289,TAKEOFF,none,1.0,0.6028751134872437,0.012407449074089527,0.033633213490247726,-0.14226317405700684,-0.09759869426488876,0.14510519802570343,-0.6525751948356628,-2.4223082065582275,3.1057863235473633,3.901916265487671,47.63460922241211,1.596653938293457,49323.0,48136.0,50423.0,47026.0,0.6,0.0,0.5,-0.5369669198989868,0.5123524069786072,0.1180095449090004,0.05160759389400482,0.032371655106544495,0.3432565927505493,-1.0952659845352173,-0.19044649600982666,3.267164945602417,-8.111719131469727,-4.086182117462158,-1.3116912841796875,49809.0,49018.0,49843.0,46624.0,-0.3000025448675481,0.51961377298239,0.5,-0.3690335154533386,-0.6217139363288879,0.10721497237682343,-0.015832068398594856,0.022219955921173096,0.344205766916275,-2.035259962081909,3.0080606937408447,5.01687479019165,10.121466636657715,15.270445823669434,3.6219375133514404,55127.0,49753.0,52117.0,49960.0,-0.29999491024331576,-0.5196181808098181,0.5
1.309,TAKEOFF,none,1.0,0.6028751134872437,0.012407449074089527,0.033633213490247726,-0.09796631336212158,-0.09422680735588074,0.14875073730945587,-0.6753119230270386,-4.062814235687256,3.157500743865967,-0.4661772549152374,30.759674072265625,1.2798734903335571,49644.0,48540.0,49889.0,46851.0,0.6,0.0,0.5,-0.5369669198989868,0.5123524069786072,0.1180095449090004,0.05195164680480957,0.03658970072865486,0.3556053638458252,-1.294991374015808,-0.0933513194322586,3.2445003986358643,-7.374177932739258,-0.13289180397987366,-2.0957279205322266,50672.0,48796.0,48581.0,46539.0,-0.3000025448675481,0.51961377298239,0.5,-0.3690335154533386,-0.6217139363288879,0.10721497237682343,-0.02734997123479843,0.0294618122279644,0.35430827736854553,-2.035259962081909,3.0080606937408447,5.01687479019165,10.121466636657715,15.270445823669434,3.6219375133514404,55717.0,48720.0,51193.0,50465.0,-0.29999491024331576,-0.5196181808098181,0.5
1.329,TAKEOFF,none,1.0,0.586639404296875,0.00040871259989216924,0.050188589841127396,-0.07815445959568024,-0.08946169912815094,0.14608165621757507,-0.7019872069358826,-4.817253112792969,3.072352170944214,-9.025960922241211,23.998767852783203,-0.8059461712837219,49806.0,48290.0,50019.0,47362.0,0.6,0.0,0.5,-0.5369669198989868,0.5123524069786072,0.1180095449090004,0.04584379494190216,0.04776845872402191,0.37609246373176575,-1.478218674659729,-0.03741879761219025,3.2215678691864014,-0.5022892951965332,1.3147132396697998,-4.143871784210205,50672.0,48796.0,48581.0,46539.0,-0.3000025448675481,0.51961377298239,0.5,-0.3690335154533386,-0.6217139363288879,0.10721497237682343,-0.0453377291560173,0.036555178463459015,0.3484524190425873,-1.8125319480895996,2.687138319015503,5.0430121421813965,14.963685989379883,22.025665283203125,3.1810433864593506,56220.0,49039.0,50272.0,49897.0,-0.29999491024331576,-0.5196181808098181,0.5
1.349,TAKEOFF,none,1.0,0.586639404296875,0.00040871259989216924,0.050188589841127396,-0.03830994665622711,-0.042555708438158035,0.18032975494861603,-1.413173794746399,-5.238637924194336,3.1145873069763184,9.47220230102539,-15.482905387878418,2.956348180770874,48320.0,49331.0,50951.0,45496.0,0.6,0.0,0.5,-0.5318927764892578,0.5165996551513672,0.15311875939369202,0.04482877627015114,0.05264991149306297,0.3844645619392395,-1.4208451509475708,-0.18252325057983398,3.139648675918579,4.430301189422607,-1.704921007156372,-2.2046382427215576,50992.0,48991.0,47606.0,45717.0,-0.3000025448675481,0.51961377298239,0.5,-0.3690335154533386,-0.6217139363288879,0.10721497237682343,-0.05334369093179703,0.03992553427815437,0.3556601107120514,-1.5478441715240479,2.305455446243286,5.105552673339844,13.359553337097168,23.262392044067383,4.008530139923096,56222.0,48458.0,50551.0,50410.0,-0.29999491024331576,-0.5196181808098181,0.5
1.369,TAKEOFF,none,1.0,0.5768429040908813,-0.00223971507512033,0.07363549619913101,-0.02168978564441204,-0.04686311259865761,0.21110489964485168,-0.5430446267127991,-4.706252098083496,3.202766180038452,25.28502082824707,-6.738907814025879,6.006890773773193,49857.0,50128.0,50144.0,44578.0,0.6,0.0,0.5,-0.5318927764892578,0.5165996551513672,0.15311875939369202,0.05597594380378723,0.04494262859225273,0.38436901569366455,-1.2940210103988647,-0.09520439058542252,3.1036763191223145,10.676626205444336,-3.2678940296173096,-0.27729368209838867,50854.0,49123.0,47420.0,44765.0,-0.3000025448675481,0.51961377298239,0.5,-0.3709121346473694,-0.6186999678611755,0.14163357019424438,-0.059868745505809784,0.04366493597626686,0.3623012900352478,-1.2663147449493408,1.8360612392425537,5.159247875213623,9.178866386413574,18.246240615844727,2.0481109619140625,55808.0,48639.0,50664.0,50074.0,-0.29999491024331576,-0.5196181808098181,0.5
1.389,TAKEOFF,none,1.0,0.5768429040908813,-0.00223971507512033,0.07363549619913101,0.006933863740414381,-0.03362211585044861,0.22095131874084473,0.09941479563713074,-4.117269039154053,3.5481088161468506,4.346529006958008,-21.509462356567383,7.071572780609131,50577.0,52134.0,53074.0,45557.0,0.6,0.0,0.5,-0.5318927764892578,0.5165996551513672,0.15311875939369202,0.056087229400873184,0.05180586874485016,0.3964444100856781,-1.0539062023162842,-0.03391691669821739,3.103252410888672,16.237823486328125,-4.342612266540527,1.0958480834960938,50632.0,49354.0,47409.0,43993.0,-0.3000025448675481,0.51961377298239,0.5,-0.3709121346473694,-0.6186999678611755,0.14163357019424438,-0.07142724096775055,0.05476661026477814,0.36885538697242737,-1.0783939361572266,1.3107575178146362,5.221615314483643,2.139669418334961,6.153141498565674,0.41820257902145386,55241.0,48435.0,51061.0,50016.0,-0.29999491024331576,-0.5196181808098181,0.5
1.409,TAKEOFF,none,1.0,0.5768429040908813,-0.00223971507512033,0.07363549619913101,0.028542857617139816,-0.03372275084257126,0.2380155473947525,0.14673809707164764,-3.12278151512146,3.8308825492858887,-0.09673546999692917,-20.39632797241211,5.472417831420898,51037.0,51266.0,52594.0,46334.0,0.6,0.0,0.5,-0.5318927764892578,0.5165996551513672,0.15311875939369202,0.05593937635421753,0.05526184290647507,0.4045334458351135,-0.7327523231506348,0.0653018206357956,3.119004011154175,16.89082908630371,-4.909819602966309,-0.11943799257278442,50532.0,48848.0,47039.0,44369.0,-0.3000025448675481,0.51961377298239,0.5,-0.3709121346473694,-0.6186999678611755,0.14163357019424438,-0.076292984187603,0.05813658609986305,0.3763611912727356,-1.03737211227417,1.2168521881103516,5.230630874633789,3.2490038871765137,-1.247150182723999,-0.025713244453072548,54626.0,48708.0,51466.0,49555.0,-0.29999491024331576,-0.5196181808098181,0.5
1.429,TAKEOFF,none,1.0,0.5752464532852173,-0.003904784331098199,0.09823747724294662,0.07090846449136734,-0.036378491669893265,0.26240891218185425,0.17106103897094727,-2.685060739517212,4.028054714202881,-1.10414457321167,-9.122807502746582,4.8780999183654785,51135.0,50883.0,52297.0,46810.0,0.6,0.0,0.5,-0.5318927764892578,0.5165996551513672,0.15311875939369202,0.0557488352060318,0.05654817074537277,0.4085661470890045,-0.41695722937583923,0.16623269021511078,3.1144227981567383,11.836102485656738,-4.859437942504883,-1.1979763507843018,50436.0,48539.0,46710.0,44410.0,-0.3000025448675481,0.51961377298239,0.5,-0.3709121346473694,-0.6186999678611755,0.14163357019424438,-0.08093926310539246,0.061360180377960205,0.3840532600879669,-1.03737211227417,1.2168521881103516,5.230630874633789,3.2490038871765137,-1.247150182723999,-0.025713244453072548,54009.0,49101.0,51831.0,48893.0,-0.29999491024331576,-0.5196181808098181,0.5
1.449,TAKEOFF,none,1.0,0.5752464532852173,-0.003904784331098199,0.09823747724294662,0.06412667036056519,-0.0430600605905056,0.27768146991729736,0.2596537172794342,-2.4009852409362793,4.134356498718262,2.082294225692749,-12.11838150024414,4.756710052490234,51418.0,51171.0,51834.0,45757.0,0.6,0.0,0.5,-0.5257359147071838,0.520818293094635,0.19235433638095856,0.05514610931277275,0.058238331228494644,0.41441741585731506,-0.1979605108499527,0.2799791693687439,3.1008684635162354,5.793303489685059,-9.788671493530273,-2.3848845958709717,50436.0,48539.0,46710.0,44410.0,-0.3000025448675481,0.51961377298239,0.5,-0.3709121346473694,-0.6186999678611755,0.14163357019424438,-0.08398596197366714,0.06649807840585709,0.39341235160827637,-0.9911208152770996,1.2087883949279785,5.221877098083496,6.067834377288818,0.8154881596565247,-0.48861998319625854,54447.0,48660.0,51007.0,49019.0,-0.29999491024331576,-0.5196181808098181,0.5
1.469,TAKEOFF,none,1.0,0.5752464532852173,-0.003904784331098199,0.09823747724294662,0.07665035128593445,-0.049494657665491104,0.29335111379623413,0.37494733929634094,-2.1904563903808594,4.161094665527344,6.736755847930908,-13.3662691116333,6.535782337188721,50940.0,51894.0,52117.0,44242.0,0.6,0.0,0.5,-0.5257359147071838,0.520818293094635,0.19235433638095856,0.07563478499650955,0.03610733523964882,0.4062214195728302,0.06581048667430878,0.29113101959228516,3.018671989440918,3.0880534648895264,-8.406292915344238,-1.8346877098083496,49896.0,48774.0,46628.0,44196.0,-0.3000025448675481,0.51961377298239,0.5,-0.38036391139030457,-0.6103882193565369,0.1793469339609146,-0.08824970573186874,0.06799480319023132,0.39741066098213196,-0.8920985460281372,1.2112959623336792,5.210851192474365,5.284268379211426,2.2660059928894043,-1.1328872442245483,54006.0,48151.0,51082.0,49151.0,-0.29999491024331576,-0.5196181808098181,0.5
1.489,TAKEOFF,none,1.0,0.5836515426635742,-0.012280016206204891,0.12802504003047943,0.08443684875965118,-0.05226065590977669,0.3189202547073364,0.4905642867088318,-1.3135154247283936,4.327656269073486,-2.8759984970092773,-26.10124397277832,5.093259811401367,49604.0,51870.0,52926.0,43608.0,0.6,0.0,0.5,-0.5257359147071838,0.520818293094635,0.19235433638095856,0.07477746903896332,0.03586927056312561,0.40926501154899597,0.10899440199136734,0.46339499950408936,2.9805667400360107,-3.7710704803466797,-7.950821399688721,-1.7565743923187256,49903.0,48421.0,46601.0,44047.0,-0.3000025448675481,0.51961377298239,0.5,-0.38036391139030457,-0.6103882193565369,0.1793469339609146,-0.08943746984004974,0.06961487978696823,0.4031880497932434,-0.7578433752059937,1.1578006744384766,5.166113376617432,8.038126945495605,2.7216787338256836,-1.9985930919647217,53931.0,48791.0,50805.0,48346.0,-0.29999491024331576,-0.5196181808098181,0.5
1.509,TAKEOFF,none,1.0,0.5836515426635742,-0.012280016206204891,0.12802504003047943,0.08018859475851059,-0.03737457096576691,0.3304527997970581,0.03775247186422348,-0.12850475311279297,4.582962989807129,-12.702521324157715,-26.60992431640625,3.45576810836792,49340.0,50770.0,52891.0,44715.0,0.6,0.0,0.5,-0.5257359147071838,0.520818293094635,0.19235433638095856,0.05952081456780434,0.0413007028400898,0.4120655059814453,0.00416893046349287,0.7185778617858887,2.975299835205078,-8.139151573181152,-7.069467067718506,-1.8748780488967896,48076.0,48361.0,48024.0,44096.0,-0.3000025448675481,0.51961377298239,0.5,-0.38036391139030457,-0.6103882193565369,0.1793469339609146,-0.09202338755130768,0.07081328332424164,0.4081628918647766,-0.3729311227798462,0.9134953618049622,5.060593128204346,10.521492004394531,11.211114883422852,-0.5326889157295227,53978.0,47808.0,50451.0,48896.0,-0.29999491024331576,-0.5196181808098181,0.5
1.529,TAKEOFF,none,1.0,0.5836515426635742,-0.012280016206204891,0.12802504003047943,0.08377102017402649,-0.0470535010099411,0.3494012653827667,-0.2808949947357178,0.5451692342758179,4.655368328094482,-8.235726356506348,-8.405738830566406,3.5426363945007324,49095.0,50941.0,52807.0,43935.0,0.6,0.0,0.5,-0.5257359147071838,0.520818293094635,0.19235433638095856,0.05718572065234184,0.041108496487140656,0.4129440486431122,-0.15690584480762482,0.8874637484550476,2.934202194213867,-9.468768119812012,-9.881877899169922,-2.300121784210205,48542.0,48373.0,46517.0,44727.0,-0.3000025448675481,0.51961377298239,0.5,-0.38036391139030457,-0.6103882193565369,0.1793469339609146,-0.0951029434800148,0.07166796177625656,0.4115983545780182,-0.3729311227798462,0.9134953618049622,5.060593128204346,10.521492004394531,11.211114883422852,-0.5326889157295227,54394.0,47779.0,49666.0,48469.0,-0.29999491024331576,-0.5196181808098181,0.5
1.549,TAKEOFF,none,1.0,0.590886116027832,-0.0155975092202425,0.16106948256492615,0.08377102017402649,-0.0470535010099411,0.3494012653827667,-0.5111092329025269,0.5841364860534668,4.690151691436768,-8.280085563659668,-3.3502025604248047,2.883289337158203,49095.0,50941.0,52807.0,43935.0,0.6,0.0,0.5,-0.5182538032531738,0.5217103362083435,0.2332034707069397,0.05173290893435478,0.04002842679619789,0.41845589876174927,-0.3313058912754059,1.098737120628357,2.852074384689331,-6.056524276733398,-9.48432445526123,-1.8593043088912964,48542.0,48373.0,46517.0,44727.0,-0.3000025448675481,0.51961377298239,0.5,-0.38036391139030457,-0.6103882193565369,0.1793469339609146,-0.09554645419120789,0.07153767347335815,0.4153110980987549,-0.16977283358573914,0.6751746535301208,5.056695461273193,7.037552356719971,15.33698844909668,-1.5473146438598633,53874.0,46724.0,49827.0,49159.0,-0.29999491024331576,-0.5196181808098181,0.5
1.569,TAKEOFF,none,1.0,0.590886116027832,-0.0155975092202425,0.16106948256492615,0.08377102017402649,-0.0470535010099411,0.3494012653827667,-0.5111092329025269,0.5841364860534668,4.690151691436768,-8.280085563659668,-3.3502025604248047,2.883289337158203,49095.0,50941.0,52807.0,43935.0,0.6,0.0,0.5,-0.5182538032531738,0.5217103362083435,0.2332034707069397,0.04805813729763031,0.040845226496458054,0.41941601037979126,-0.4095418155193329,1.257757544517517,2.8045613765716553,-2.9239749908447266,-8.86327075958252,0.6170002222061157,48826.0,48487.0,46710.0,42437.0,-0.3000025448675481,0.51961377298239,0.5,-0.38036391139030457,-0.6103882193565369,0.1793469339609146,-0.09554645419120789,0.07153767347335815,0.4153110980987549,-0.0072859665378928185,0.3874371647834778,5.025373935699463,10.97109317779541,12.14874267578125,-2.2677886486053467,54186.0,47426.0,49050.0,48271.0,-0.29999491024331576,-0.5196181808098181,0.5
1.589,TAKEOFF,none,1.0,0.590886116027832,-0.0155975092202425,0.16106948256492615,0.08377102017402649,-0.0470535010099411,0.3494012653827667,-0.5111092329025269,0.5841364860534668,4.690151691436768,-8.280085563659668,-3.3502025604248047,2.883289337158203,49095.0,50941.0,52807.0,43935.0,0.6,0.0,0.5,-0.5182538032531738,0.5217103362083435,0.2332034707069397,0.043852128088474274,0.04198980703949928,0.41748422384262085,-0.40912488102912903,1.4272546768188477,2.7934775352478027,6.132575511932373,-3.756819486618042,-2.94303297996521,48843.0,47790.0,45874.0,43799.0,-0.3000025448675481,0.51961377298239,0.5,-0.38782191276550293,-0.6038685441017151,0.2207949161529541,-0.09665492922067642,0.07129295915365219,0.4159151017665863,0.2023862898349762,0.13318286836147308,4.988321781158447,8.558303833007812,7.795794486999512,-2.4698545932769775,53616.0,47374.0,49548.0,47853.0,-0.29999491024331576,-0.5196181808098181,0.5
1.609,TAKEOFF,none,1.0,0.590886116027832,-0.0155975092202425,0.16106948256492615,0.07952871173620224,-0.03825359046459198,0.35411885380744934,-0.5111092329025269,0.5841364860534668,4.690151691436768,-8.280085563659668,-3.3502025604248047,2.883289337158203,50593.0,49886.0,51403.0,45190.0,0.6,0.0,0.5,-0.5182538032531738,0.5217103362083435,0.2332034707069397,0.039104659110307693,0.043163008987903595,0.4149344563484192,-0.312828928232193,1.4817556142807007,2.7495057582855225,2.8733441829681396,0.11291671544313431,-1.5934603214263916,48860.0,47993.0,45669.0,43285.0,-0.3000025448675481,0.51961377298239,0.5,-0.38782191276550293,-0.6038685441017151,0.2207949161529541,-0.06664987653493881,0.05759483575820923,0.40439271926879883,0.3636859059333801,-0.017022835090756416,4.940887451171875,5.473801136016846,4.262532711029053,-2.419560432434082,53121.0,47679.0,49656.0,47385.0,-0.29999491024331576,-0.5196181808098181,0.5
1.629,TAKEOFF,none,1.0,0.590886116027832,-0.0155975092202425,0.16106948256492615,0.07952871173620224,-0.03825359046459198,0.35411885380744934,-0.600432813167572,0.6435174942016602,4.749114990234375,-5.454050540924072,2.96765398979187,1.9437623023986816,49730.0,50829.0,52023.0,43621.0,0.6,0.0,0.5,-0.5182538032531738,0.5217103362083435,0.2332034707069397,0.03406541794538498,0.04405421018600464,0.4122038781642914,-0.22339093685150146,1.4561364650726318,2.696195363998413,0.3089800775051117,4.191660404205322,-0.9700030088424683,48926.0,48784.0,45384.0,42041.0,-0.3000025448675481,0.51961377298239,0.5,-0.38782191276550293,-0.6038685441017151,0.2207949161529541,-0.06546667963266373,0.05571913719177246,0.40270575881004333,0.5621402859687805,-0.3008413314819336,4.913332462310791,3.518387794494629,-0.652627170085907,-3.872009038925171,53212.0,47448.0,49540.0,47925.0,-0.29999491024331576,-0.5196181808098181,0.5
1.649,TAKEOFF,none,1.0,0.590886116027832,-0.0155975092202425,0.16106948256492615,0.08275815099477768,-0.0389404222369194,0.3564201891422272,-0.7024245858192444,0.5620640516281128,4.730961322784424,-7.413628578186035,1.4122918844223022,3.326561212539673,50445.0,49831.0,51368.0,44643.0,0.6,0.0,0.5,-0.514141857624054,0.5259585380554199,0.27475404739379883,0.029127491638064384,0.04467679560184479,0.40764424204826355,-0.1295490711927414,1.4114429950714111,2.6400082111358643,4.353581428527832,3.3985960483551025,-1.6430697441101074,48926.0,48784.0,45384.0,42041.0,-0.3000025448675481,0.51961377298239,0.5,-0.38782191276550293,-0.6038685441017151,0.2207949161529541,-0.06761522591114044,0.0540841668844223,0.4059165418148041,0.6256993412971497,-0.2697405517101288,4.843160629272461,1.946791410446167,-5.078123092651367,-3.76550030708313,52871.0,47614.0,49704.0,47542.0,-0.29999491024331576,-0.5196181808098181,0.5
1.669,TAKEOFF,none,1.0,0.590886116027832,-0.0155975092202425,0.16106948256492615,0.08364450186491013,-0.03675153851509094,0.3547815680503845,-0.8324230909347534,0.4685744345188141,4.722858905792236,-2.568650007247925,5.678523063659668,4.696732044219971,50450.0,50041.0,51245.0,44241.0,0.6,0.0,0.5,-0.514141857624054,0.5259585380554199,0.27475404739379883,0.019294507801532745,0.04391989856958389,0.4097350835800171,-0.03012954071164131,1.3930708169937134,2.57163667678833,-0.43905794620513916,1.7034083604812622,-1.5162901878356934,47990.0,48656.0,45818.0,41770.0,-0.3000025448675481,0.51961377298239,0.5,-0.38721251487731934,-0.6019095778465271,0.26068612933158875,-0.06761522591114044,0.0540841668844223,0.4059165418148041,0.6615754961967468,-0.13878482580184937,4.734560966491699,1.3682329654693604,-7.411606788635254,-4.371467590332031,52350.0,47618.0,49832.0,47278.0,-0.29999491024331576,-0.5196181808098181,0.5
1.689,TAKEOFF,none,1.0,0.5983594059944153,-0.020406898111104965,0.19764666259288788,0.059107840061187744,-0.03445996716618538,0.37195885181427,-0.9470923542976379,0.3910220265388489,4.734270095825195,-6.32029390335083,5.578573226928711,3.857409954071045,48705.0,50769.0,52674.0,42810.0,0.6,0.0,0.5,-0.514141857624054,0.5259585380554199,0.27475404739379883,0.014617525041103363,0.0438796691596508,0.40360739827156067,-0.011223592795431614,1.3818961381912231,2.518948554992676,-1.4080404043197632,2.2697594165802,-2.2867074012756348,47990.0,48656.0,45818.0,41770.0,-0.3000025448675481,0.51961377298239,0.5,-0.38721251487731934,-0.6019095778465271,0.26068612933158875,-0.05859079584479332,0.05174661800265312,0.39331212639808655,0.6962587833404541,0.08917050063610077,4.569947242736816,0.2758465111255646,-5.488485336303711,-3.3864858150482178,52571.0,47677.0,49541.0,47168.0,-0.29999491024331576,-0.5196181808098181,0.5
1.709,TAKEOFF,none,1.0,0.5983594059944153,-0.020406898111104965,0.19764666259288788,0.05797828733921051,-0.028752725571393967,0.37204763293266296,-1.3012510538101196,0.6242170929908752,4.896205425262451,-6.2519707679748535,-1.6922576427459717,1.307348608970642,48925.0,50196.0,51935.0,42958.0,0.6,0.0,0.5,-0.514141857624054,0.5259585380554199,0.27475404739379883,0.002889312105253339,0.053799763321876526,0.3848852515220642,-0.09379564970731735,1.4027962684631348,2.4377493858337402,-4.2082295417785645,2.2886383533477783,-3.033809185028076,47729.0,46976.0,45803.0,44285.0,-0.3000025448675481,0.51961377298239,0.5,-0.38721251487731934,-0.6019095778465271,0.26068612933158875,-0.05880090966820717,0.049362532794475555,0.3908577561378479,0.6940922737121582,0.19802334904670715,4.501121997833252,0.6496343612670898,-2.413041114807129,-3.1636695861816406,52570.0,47206.0,49461.0,47489.0,-0.29999491024331576,-0.5196181808098181,0.5
1.729,TAKEOFF,none,1.0,0.5983594059944153,-0.020406898111104965,0.19764666259288788,0.055697496980428696,-0.01117605809122324,0.3712373673915863,-1.4205375909805298,0.6162460446357727,4.88877010345459,2.69331955909729,6.879392623901367,-0.5792024731636047,47988.0,50014.0,52337.0,42665.0,0.6,0.0,0.5,-0.514141857624054,0.5259585380554199,0.27475404739379883,-0.006494647357612848,0.05162300914525986,0.3785113990306854,-0.17609038949012756,1.3344084024429321,2.3295412063598633,-3.936530113220215,2.3853118419647217,-2.64752197265625,47467.0,47569.0,45982.0,43341.0,-0.3000025448675481,0.51961377298239,0.5,-0.38721251487731934,-0.6019095778465271,0.26068612933158875,-0.06482502073049545,0.0452667698264122,0.39617374539375305,0.7056261897087097,0.28778064250946045,4.415369033813477,0.07546108216047287,1.0563794374465942,-3.1152384281158447,52833.0,47177.0,48959.0,47326.0,-0.29999491024331576,-0.5196181808098181,0.5
1.749,TAKEOFF,none,1.0,0.6038530468940735,-0.022287562489509583,0.23864735662937164,0.039681896567344666,-0.011678584851324558,0.3729150593280792,-1.3361140489578247,0.5967025756835938,4.827195167541504,0.35370686650276184,8.710817337036133,-1.1674885749816895,50027.0,50376.0,50060.0,42224.0,0.6,0.0,0.5,-0.5154439210891724,0.5319557189941406,0.31360188126564026,-0.011725103482604027,0.05156910791993141,0.372846394777298,-0.22605334222316742,1.2757278680801392,2.236051082611084,0.530860424041748,3.6330604553222656,-2.7127881050109863,47139.0,47961.0,46413.0,42507.0,-0.3000025448675481,0.51961377298239,0.5,-0.38721251487731934,-0.6019095778465271,0.26068612933158875,-0.06686420738697052,0.04379727691411972,0.39506396651268005,0.7056261897087097,0.28778064250946045,4.415369033813477,0.07546108216047287,1.0563794374465942,-3.1152384281158447,52531.0,47117.0,48868.0,46947.0,-0.29999491024331576,-0.5196181808098181,0.5
1.769,TAKEOFF,none,1.0,0.6038530468940735,-0.022287562489509583,0.23864735662937164,0.038373060524463654,-0.00848930049687624,0.3682684600353241,-1.295204997062683,0.31460079550743103,4.797416687011719,-1.9352576732635498,6.157780170440674,-2.408034086227417,48647.0,49404.0,51178.0,43417.0,0.6,0.0,0.5,-0.5154439210891724,0.5319557189941406,0.31360188126564026,-0.008974988013505936,0.047734614461660385,0.3578614294528961,-0.15684516727924347,1.172512412071228,2.1704659461975098,5.573910713195801,4.070032119750977,-2.2543206214904785,47723.0,48098.0,45864.0,42655.0,-0.3000025448675481,0.51961377298239,0.5,-0.39809221029281616,-0.5936084985733032,0.29866549372673035,-0.0795118510723114,0.04806285351514816,0.38303303718566895,0.6334236264228821,0.35226985812187195,4.3355889320373535,1.6205487251281738,2.8941457271575928,-3.3065435886383057,52258.0,46706.0,49072.0,47383.0,-0.29999491024331576,-0.5196181808098181,0.5
1.789,TAKEOFF,none,1.0,0.6038530468940735,-0.022287562489509583,0.23864735662937164,0.03362870216369629,0.002195789013057947,0.3610192537307739,-1.3290998935699463,0.17531560361385345,4.746454238891602,-2.4997305870056152,10.75299072265625,-2.229614019393921,49164.0,48767.0,50559.0,44026.0,0.6,0.0,0.5,-0.5154439210891724,0.5319557189941406,0.31360188126564026,-0.01279999129474163,0.04803907498717308,0.35055312514305115,-0.039831724017858505,1.104170560836792,2.0890281200408936,6.920695781707764,7.949828624725342,-2.173794746398926,47355.0,47208.0,46240.0,43332.0,-0.3000025448675481,0.51961377298239,0.5,-0.39809221029281616,-0.5936084985733032,0.29866549372673035,-0.08033210784196854,0.045734841376543045,0.3786204159259796,0.7897409200668335,0.1243889331817627,4.2001872062683105,2.923929214477539,3.724933624267578,-2.982802152633667,52149.0,46616.0,48980.0,47338.0,-0.29999491024331576,-0.5196181808098181,0.5
1.81,TAKEOFF,none,1.0,0.6038530468940735,-0.022287562489509583,0.23864735662937164,0.04693256691098213,0.010561692528426647,0.35259944200515747,-1.4209047555923462,-0.11932825297117233,4.696413993835449,-7.9550065994262695,8.276493072509766,-3.801668167114258,48147.0,49228.0,51340.0,43576.0,0.6,0.0,0.5,-0.5154439210891724,0.5319557189941406,0.31360188126564026,-0.017971349880099297,0.04770307242870331,0.3470931649208069,0.06265398114919662,0.9506257772445679,2.0558130741119385,1.656874656677246,12.665875434875488,-1.5769217014312744,48522.0,47704.0,44962.0,42543.0,-0.3000025448675481,0.51961377298239,0.5,-0.39809221029281616,-0.5936084985733032,0.29866549372673035,-0.06389909982681274,0.03376207873225212,0.3722587525844574,0.8551357388496399,0.03196652606129646,4.1372761726379395,3.847259044647217,4.487823963165283,-3.8810012340545654,52475.0,46689.0,48916.0,46544.0,-0.29999491024331576,-0.5196181808098181,0.5
1.829,TAKEOFF,none,1.0,0.6079116463661194,-0.021764036267995834,0.2764139473438263,0.041125938296318054,0.0069843172095716,0.34435877203941345,-1.4209047555923462,-0.11932825297117233,4.696413993835449,-7.9550065994262695,8.276493072509766,-3.801668167114258,49225.0,49496.0,50364.0,43295.0,0.6,0.0,0.5,-0.5154439210891724,0.5319557189941406,0.31360188126564026,-0.013329927809536457,0.04658053442835808,0.32804569602012634,0.13322550058364868,0.68178391456604,1.9947073459625244,0.6062198877334595,10.863199234008789,-0.9788343906402588,48192.0,47411.0,45557.0,43106.0,-0.3000025448675481,0.51961377298239,0.5,-0.39809221029281616,-0.5936084985733032,0.29866549372673035,-0.0765034407377243,0.045726478099823,0.36259493231773376,0.8295474648475647,-0.03277452290058136,4.082964897155762,5.392773628234863,3.2154381275177,-3.9621214866638184,52291.0,46508.0,48420.0,47220.0,-0.29999491024331576,-0.5196181808098181,0.5
1.849,TAKEOFF,none,1.0,0.6079116463661194,-0.021764036267995834,0.2764139473438263,0.04772531986236572,0.00922493264079094,0.3339305520057678,-1.501675009727478,-0.33318209648132324,4.47590446472168,2.3019111156463623,4.612046241760254,-4.865601062774658,48510.0,48853.0,50953.0,44294.0,0.6,0.0,0.5,-0.5146579742431641,0.535261332988739,0.3474564254283905,-0.01782037876546383,0.045773040503263474,0.3268044590950012,0.16640590131282806,0.5000597238540649,1.9654979705810547,0.3483574688434601,9.063097953796387,-1.6543166637420654,48466.0,47770.0,44954.0,42862.0,-0.3000025448675481,0.51961377298239,0.5,-0.39809221029281616,-0.5936084985733032,0.29866549372673035,-0.0739600658416748,0.049103330820798874,0.3461192846298218,0.8795846104621887,-0.03434523567557335,4.012392044067383,3.198777914047241,-0.16597531735897064,-3.259612560272217,52120.0,46816.0,48725.0,46782.0,-0.29999491024331576,-0.5196181808098181,0.5
1.869,TAKEOFF,none,1.0,0.6079116463661194,-0.021764036267995834,0.2764139473438263,0.05151347815990448,0.01444755494594574,0.3255869448184967,-1.501675009727478,-0.33318209648132324,4.47590446472168,2.3019111156463623,4.612046241760254,-4.865601062774658,48203.0,49559.0,51169.0,43577.0,0.6,0.0,0.5,-0.5146579742431641,0.535261332988739,0.3474564254283905,-0.019597915932536125,0.04520251974463463,0.32012131810188293,0.223914235830307,0.34195300936698914,1.929091215133667,4.254352569580078,6.426204681396484,-1.4253004789352417,47921.0,47205.0,45562.0,43545.0,-0.3000025448675481,0.51961377298239,0.5,-0.40194523334503174,-0.5894373655319214,0.3336242437362671,-0.0739600658416748,0.049103330820798874,0.3461192846298218,0.8795846104621887,-0.03434523567557335,4.012392044067383,3.198777914047241,-0.16597531735897064,-3.259612560272217,51721.0,46810.0,49247.0,47079.0,-0.29999491024331576,-0.5196181808098181,0.5
1.889,TAKEOFF,none,1.0,0.6079116463661194,-0.021764036267995834,0.2764139473438263,0.05151347815990448,0.01444755494594574,0.3255869448184967,-1.501675009727478,-0.33318209648132324,4.47590446472168,2.3019111156463623,4.612046241760254,-4.865601062774658,48203.0,49559.0,51169.0,43577.0,0.6,0.0,0.5,-0.5146579742431641,0.535261332988739,0.3474564254283905,-0.02082850970327854,0.04449319466948509,0.3120758533477783,0.2902754247188568,0.23229962587356567,1.8951584100723267,2.5785956382751465,5.349117755889893,-1.2935466766357422,47921.0,47205.0,45562.0,43545.0,-0.3000025448675481,0.51961377298239,0.5,-0.40194523334503174,-0.5894373655319214,0.3336242437362671,-0.07500603795051575,0.047096289694309235,0.3378271460533142,0.94198077917099,-0.08378995954990387,3.987316608428955,2.196737289428711,0.1474805772304535,-2.700202226638794,52014.0,46188.0,49407.0,47059.0,-0.29999491024331576,-0.5196181808098181,0.5
1.909,TAKEOFF,none,1.0,0.6079116463661194,-0.021764036267995834,0.2764139473438263,0.05151347815990448,0.01444755494594574,0.3255869448184967,-1.501675009727478,-0.33318209648132324,4.47590446472168,2.3019111156463623,4.612046241760254,-4.865601062774658,48203.0,49559.0,51169.0,43577.0,0.6,0.0,0.5,-0.5146579742431641,0.535261332988739,0.3474564254283905,-0.021646665409207344,0.04357294738292694,0.30309879779815674,0.33435583114624023,0.13576966524124146,1.8627015352249146,0.5684834718704224,5.441326141357422,-1.7737170457839966,48287.0,47556.0,44989.0,43151.0,-0.3000025448675481,0.51961377298239,0.5,-0.40194523334503174,-0.5894373655319214,0.3336242437362671,-0.06693082302808762,0.043559588491916656,0.32426196336746216,1.0348669290542603,-0.14564761519432068,3.9531548023223877,0.754281222820282,2.069225549697876,-2.620123863220215,52356.0,46422.0,48987.0,47158.0,-0.29999491024331576,-0.5196181808098181,0.5
1.929,TAKEOFF,none,1.0,0.6079116463661194,-0.021764036267995834,0.2764139473438263,0.05151347815990448,0.01444755494594574,0.3255869448184967,-1.501675009727478,-0.33318209648132324,4.47590446472168,2.3019111156463623,4.612046241760254,-4.865601062774658,48203.0,49559.0,51169.0,43577.0,0.6,0.0,0.5,-0.5146579742431641,0.535261332988739,0.3474564254283905,-0.01518593356013298,0.042589444667100906,0.2809317708015442,0.3462412655353546,-0.05886418744921684,1.7894518375396729,1.6585891246795654,6.831543922424316,-1.8806910514831543,48326.0,47473.0,45439.0,43616.0,-0.3000025448675481,0.51961377298239,0.5,-0.40194523334503174,-0.5894373655319214,0.3336242437362671,-0.06528202444314957,0.029793696478009224,0.3270024359226227,1.113350510597229,-0.1662968099117279,3.881856679916382,1.154178261756897,3.6387858390808105,-2.495084047317505,52481.0,46596.0,48318.0,46890.0,-0.29999491024331576,-0.5196181808098181,0.5
1.949,TAKEOFF,none,1.0,0.6079116463661194,-0.021764036267995834,0.2764139473438263,0.03459577262401581,0.01977533847093582,0.32824739813804626,-1.5152511596679688,-0.41086459159851074,4.344235897064209,-2.3513283729553223,-1.9869816303253174,-2.1191625595092773,48964.0,49790.0,50460.0,43277.0,0.6,0.0,0.5,-0.515629231929779,0.5396743416786194,0.37557369470596313,-0.015086785890161991,0.04146192967891693,0.2738591730594635,0.3754540681838989,-0.15187999606132507,1.7579376697540283,0.6402562260627747,3.8084614276885986,-0.6048250198364258,48326.0,47473.0,45439.0,43616.0,-0.3000025448675481,0.51961377298239,0.5,-0.40194523334503174,-0.5894373655319214,0.3336242437362671,-0.06064625829458237,0.022925877943634987,0.3270616829395294,1.107298731803894,-0.20546793937683105,3.8139116764068604,-0.9889740347862244,4.3326735496521,-2.3443009853363037,52094.0,46636.0,48397.0,46720.0,-0.29999491024331576,-0.5196181808098181,0.5
1.969,TAKEOFF,none,1.0,0.6079116463661194,-0.021764036267995834,0.2764139473438263,0.03837350755929947,0.028633609414100647,0.32053011655807495,-1.326482892036438,-0.36143961548805237,4.184746742248535,5.426646709442139,4.114483833312988,-3.8776702880859375,49723.0,49588.0,49612.0,43399.0,0.6,0.0,0.5,-0.515629231929779,0.5396743416786194,0.37557369470596313,-0.015002216212451458,0.04121462628245354,0.2728304862976074,0.417759507894516,-0.2259199470281601,1.729788899421692,2.468473434448242,-1.0607240200042725,-0.06915751844644547,48652.0,47464.0,45360.0,42905.0,-0.3000025448675481,0.51961377298239,0.5,-0.40392664074897766,-0.5913262963294983,0.3676859140396118,-0.0584401972591877,0.01588582620024681,0.31255900859832764,0.9975084066390991,-0.36987796425819397,3.72810697555542,-4.9511332511901855,2.944014310836792,-2.0388216972351074,52033.0,46113.0,48402.0,47164.0,-0.29999491024331576,-0.5196181808098181,0.5
1.989,TAKEOFF,none,1.0,0.6126357316970825,-0.02085590548813343,0.3106527030467987,0.04083884507417679,0.036571964621543884,0.3020274043083191,-1.2368175983428955,-0.41026100516319275,4.003570556640625,0.8078762292861938,0.2713274657726288,-4.064698696136475,48334.0,49582.0,50427.0,43460.0,0.6,0.0,0.5,-0.515629231929779,0.5396743416786194,0.37557369470596313,-0.026816148310899734,0.04984694719314575,0.27537739276885986,0.39772728085517883,-0.12123263627290726,1.7607536315917969,4.898270606994629,-1.1777825355529785,-0.5738580822944641,47410.0,47367.0,46362.0,42687.0,-0.3000025448675481,0.51961377298239,0.5,-0.40392664074897766,-0.5913262963294983,0.3676859140396118,-0.05698643624782562,0.012780643999576569,0.3037559688091278,0.8870444893836975,-0.4011095464229584,3.6878981590270996,-7.454090595245361,-2.060166358947754,-2.9178402423858643,51785.0,46094.0,48642.0,47113.0,-0.29999491024331576,-0.5196181808098181,0.5
2.009,TAKEOFF,none,1.0,0.6126357316970825,-0.02085590548813343,0.3106527030467987,0.03880088031291962,0.06929639726877213,0.3047666847705841,-1.3080334663391113,-0.396847665309906,3.905606985092163,2.7608044147491455,-1.1042728424072266,-4.4811906814575195,48928.0,49338.0,49873.0,43432.0,0.6,0.0,0.5,-0.515629231929779,0.5396743416786194,0.37557369470596313,-0.028261972591280937,0.051653310656547546,0.2763628363609314,0.4486789405345917,-0.07721373438835144,1.797951340675354,3.6790473461151123,-0.8012701272964478,-0.46499139070510864,48345.0,47298.0,45227.0,42521.0,-0.3000025448675481,0.51961377298239,0.5,-0.40392664074897766,-0.5913262963294983,0.3676859140396118,-0.05552346259355545,0.010083280503749847,0.29441696405410767,0.7465866804122925,-0.35991641879081726,3.621307134628296,-7.1957221031188965,-5.108463764190674,-3.412260055541992,51194.0,46753.0,49193.0,46559.0,-0.29999491024331576,-0.5196181808098181,0.5
2.029,TAKEOFF,none,1.0,0.6201103329658508,-0.010412892326712608,0.3438597619533539,0.07187554240226746,0.0839918926358223,0.29395851492881775,-1.3080334663391113,-0.396847665309906,3.905606985092163,2.7608044147491455,-1.1042728424072266,-4.4811906814575195,48792.0,48998.0,49865.0,43734.0,0.6,0.0,0.5,-0.515629231929779,0.5396743416786194,0.37557369470596313,-0.022600676864385605,0.044227126985788345,0.263001948595047,0.5587985515594482,-0.11441238224506378,1.8184877634048462,1.3158793449401855,3.7459793090820312,-0.8472925424575806,48269.0,46613.0,45394.0,43587.0,-0.3000025448675481,0.51961377298239,0.5,-0.40392664074897766,-0.5913262963294983,0.3676859140396118,-0.054264627397060394,0.007824134081602097,0.2859821915626526,0.7032046914100647,-0.40804705023765564,3.5675604343414307,-4.215573787689209,-5.876251220703125,-4.823490142822266,51427.0,46719.0,48862.0,46685.0,-0.29999491024331576,-0.5196181808098181,0.5
2.049,TAKEOFF,none,1.0,0.6201103329658508,-0.010412892326712608,0.3438597619533539,0.07358652353286743,0.08828223496675491,0.28569844365119934,-1.1217656135559082,-0.6150690913200378,3.7510175704956055,11.615425109863281,0.26535463333129883,-4.871170520782471,49718.0,48680.0,48964.0,44050.0,0.6,0.0,0.5,-0.5197814702987671,0.5463923215866089,0.4052053391933441,-0.01840638555586338,0.038862645626068115,0.25031498074531555,0.6255002617835999,-0.22740279138088226,1.777002215385437,3.4935519695281982,8.69926643371582,-1.6612756252288818,48243.0,47195.0,45573.0,42995.0,-0.3000025448675481,0.51961377298239,0.5,-0.40392664074897766,-0.5913262963294983,0.3676859140396118,-0.05497634410858154,0.010358022525906563,0.268128365278244,0.7032046914100647,-0.40804705023765564,3.5675604343414307,-4.215573787689209,-5.876251220703125,-4.823490142822266,51358.0,46431.0,49115.0,46765.0,-0.29999491024331576,-0.5196181808098181,0.5
2.069,TAKEOFF,none,1.0,0.6201103329658508,-0.010412892326712608,0.3438597619533539,0.08520272374153137,0.08698894828557968,0.2835635244846344,-0.8097739815711975,-0.6673086285591125,3.5691938400268555,16.30335807800293,-8.125142097473145,-4.53162956237793,49792.0,49105.0,48684.0,43402.0,0.6,0.0,0.5,-0.5197814702987671,0.5463923215866089,0.4052053391933441,-0.018846610561013222,0.038673702627420425,0.24754023551940918,0.659985363483429,-0.3655867874622345,1.7682700157165527,4.590934753417969,5.667771816253662,-0.7278238534927368,48226.0,47073.0,45499.0,43103.0,-0.3000025448675481,0.51961377298239,0.5,-0.4099859595298767,-0.5890524387359619,0.3923838138580322,-0.05598776787519455,0.008462726138532162,0.25968852639198303,0.46613502502441406,0.004289973061531782,3.3840415477752686,-0.20076604187488556,-7.42774772644043,-3.4844772815704346,51251.0,47044.0,49114.0,46880.0,-0.29999491024331576,-0.5196181808098181,0.5
2.089,TAKEOFF,none,1.0,0.6201103329658508,-0.010412892326712608,0.3438597619533539,0.08710644394159317,0.0895080640912056,0.27331650257110596,-0.5092156529426575,-0.4792630970478058,3.5636143684387207,20.071870803833008,-11.759395599365234,-4.692951202392578,49803.0,50081.0,48645.0,42266.0,0.6,0.0,0.5,-0.5197814702987671,0.5463923215866089,0.4052053391933441,-0.011057119816541672,0.02986999787390232,0.2306687831878662,0.8029056191444397,-0.5382534861564636,1.7526025772094727,3.599569797515869,6.310451507568359,0.5643845796585083,48685.0,47587.0,45294.0,42644.0,-0.3000025448675481,0.51961377298239,0.5,-0.4099859595298767,-0.5890524387359619,0.3923838138580322,-0.05602733790874481,0.006933207157999277,0.25117167830467224,0.46613502502441406,0.004289973061531782,3.3840415477752686,-0.20076604187488556,-7.42774772644043,-3.4844772815704346,51540.0,47054.0,48934.0,46811.0,-0.29999491024331576,-0.5196181808098181,0.5
2.109,TAKEOFF,none,1.0,0.6201103329658508,-0.010412892326712608,0.3438597619533539,0.08413667976856232,0.0981559008359909,0.2646174430847168,-0.13534723222255707,-0.24988462030887604,3.4812352657318115,13.931236267089844,-12.750391006469727,-3.5611281394958496,48804.0,49830.0,49759.0,42631.0,0.6,0.0,0.5,-0.5197814702987671,0.5463923215866089,0.4052053391933441,-0.016140321269631386,0.033019233494997025,0.2294386625289917,0.8371917009353638,-0.5768104195594788,1.756955862045288,1.5147844552993774,1.3408756256103516,0.3763296604156494,48529.0,47736.0,45389.0,42271.0,-0.3000025448675481,0.51961377298239,0.5,-0.4099859595298767,-0.5890524387359619,0.3923838138580322,-0.05570723116397858,0.003929418046027422,0.24052254855632782,0.4677222967147827,0.13387563824653625,3.3179116249084473,1.2972896099090576,-2.6543493270874023,-3.884104013442993,51286.0,46915.0,49213.0,47088.0,-0.29999491024331576,-0.5196181808098181,0.5
2.129,TAKEOFF,none,1.0,0.6217857599258423,-0.006361718289554119,0.37282150983810425,0.045388828963041306,0.06949916481971741,0.25799793004989624,0.35741767287254333,0.28763753175735474,3.492178440093994,15.345784187316895,-16.00191879272461,-3.4073519706726074,48456.0,50129.0,49989.0,42421.0,0.6,0.0,0.5,-0.5197814702987671,0.5463923215866089,0.4052053391933441,-0.006571194622665644,0.024022182449698448,0.20981721580028534,0.9435784220695496,-0.6642709970474243,1.7439346313476562,1.4367623329162598,1.4536912441253662,-0.3773788511753082,48983.0,46934.0,45134.0,43720.0,-0.3000025448675481,0.51961377298239,0.5,-0.4099859595298767,-0.5890524387359619,0.3923838138580322,-0.05538461357355118,0.0011927480809390545,0.23092007637023926,0.5429742336273193,0.12160812318325043,3.1253678798675537,0.7346956133842468,5.674471378326416,-2.6640074253082275,51717.0,47243.0,48837.0,46899.0,-0.29999491024331576,-0.5196181808098181,0.5
2.149,TAKEOFF,none,1.0,0.6217857599258423,-0.006361718289554119,0.37282150983810425,0.04504773020744324,0.06835805624723434,0.25577762722969055,0.6448001265525818,0.6091339588165283,3.47563099861145,13.941465377807617,-14.555176734924316,-4.247522354125977,48598.0,50603.0,49738.0,41353.0,0.6,0.0,0.5,-0.5201511979103088,0.5489614605903625,0.4283941388130188,-0.013153910636901855,0.028051920235157013,0.20921632647514343,0.9070363640785217,-0.6452761888504028,1.776413083076477,-2.530616521835327,1.6859848499298096,-0.686877429485321,48317.0,46809.0,45565.0,43862.0,-0.3000025448675481,0.51961377298239,0.5,-0.4099859595298767,-0.5890524387359619,0.3923838138580322,-0.055607154965400696,-0.0006215658504515886,0.22334027290344238,0.5598546862602234,0.02228126861155033,3.078995943069458,-0.4400618076324463,8.170853614807129,-2.166382312774658,52013.0,47118.0,48636.0,47080.0,-0.29999491024331576,-0.5196181808098181,0.5
2.169,TAKEOFF,none,1.0,0.6217857599258423,-0.006361718289554119,0.37282150983810425,0.0443880632519722,0.06594361364841461,0.252711683511734,0.870528519153595,0.8847343921661377,3.446641445159912,7.806746482849121,-3.2289934158325195,-4.694508075714111,47551.0,50526.0,50591.0,41349.0,0.6,0.0,0.5,-0.5201511979103088,0.5489614605903625,0.4283941388130188,-0.0045278859324753284,0.018806492909789085,0.1937934160232544,0.8723841309547424,-0.7670735120773315,1.7638603448867798,-5.317445755004883,3.4665896892547607,-1.0769377946853638,48250.0,46732.0,45995.0,44099.0,-0.3000025448675481,0.51961377298239,0.5,-0.4157962501049042,-0.5890449285507202,0.4172763526439667,-0.053439706563949585,-0.0032100901007652283,0.21104992926120758,0.5598546862602234,0.02228126861155033,3.078995943069458,-0.4400618076324463,8.170853614807129,-2.166382312774658,51922.0,46359.0,48820.0,47821.0,-0.29999491024331576,-0.5196181808098181,0.5
2.189,TAKEOFF,none,1.0,0.6217857599258423,-0.006361718289554119,0.37282150983810425,0.0432371087372303,0.06288216263055801,0.24875985085964203,0.9776887893676758,0.9691374897956848,3.4090096950531006,-2.3291778564453125,-1.1327245235443115,-5.017147541046143,47855.0,50024.0,50247.0,42010.0,0.6,0.0,0.5,-0.5201511979103088,0.5489614605903625,0.4283941388130188,-0.0019859587773680687,0.015903888270258904,0.1865740269422531,0.7528363466262817,-0.7926025390625,1.7595431804656982,-1.099134922027588,0.08678656071424484,-0.28817272186279297,48234.0,47318.0,45855.0,43667.0,-0.3000025448675481,0.51961377298239,0.5,-0.4157962501049042,-0.5890449285507202,0.4172763526439667,-0.021447131410241127,-0.016570651903748512,0.2217068374156952,0.6546971201896667,-0.3770539164543152,3.026552438735962,-3.1146633625030518,7.24155330657959,-1.7009310722351074,52252.0,45930.0,48226.0,47947.0,-0.29999491024331576,-0.5196181808098181,0.5
2.209,TAKEOFF,none,1.0,0.6217857599258423,-0.006361718289554119,0.37282150983810425,0.04220864176750183,0.059275176376104355,0.24631460011005402,0.9445859789848328,0.945771336555481,3.315077066421509,-6.30300760269165,7.038951396942139,-4.96307373046875,48636.0,49143.0,49431.0,43225.0,0.6,0.0,0.5,-0.5201511979103088,0.5489614605903625,0.4283941388130188,0.00968764815479517,0.007522551342844963,0.17273497581481934,0.7397711873054504,-0.8285015821456909,1.744708776473999,-1.954049825668335,-5.149150848388672,1.1177759170532227,48883.0,47766.0,45924.0,42838.0,-0.3000025448675481,0.51961377298239,0.5,-0.4157962501049042,-0.5890449285507202,0.4172763526439667,-0.019371584057807922,-0.018222080543637276,0.21558278799057007,0.44477927684783936,-0.7869250178337097,2.927288293838501,-7.446460247039795,2.1406984329223633,-1.351507306098938,52022.0,46290.0,48327.0,47615.0,-0.29999491024331576,-0.5196181808098181,0.5
2.229,TAKEOFF,none,1.0,0.6271839141845703,0.0005518231191672385,0.40166205167770386,0.03941884636878967,0.05613548308610916,0.2351403385400772,0.8208938241004944,0.7805553078651428,3.218301296234131,-9.673787117004395,8.397931098937988,-4.2498087882995605,47902.0,48683.0,50068.0,43989.0,0.6,0.0,0.5,-0.5201511979103088,0.5489614605903625,0.4283941388130188,-0.00693184370175004,0.019154733046889305,0.18046748638153076,0.6117450594902039,-0.589579701423645,1.8074589967727661,-1.5129412412643433,-6.218637466430664,1.0965962409973145,48676.0,47678.0,45838.0,42561.0,-0.3000025448675481,0.51961377298239,0.5,-0.4157962501049042,-0.5890449285507202,0.4172763526439667,-0.0069919186644256115,-0.02180831879377365,0.21302400529384613,0.24499350786209106,-0.8415153622627258,2.856342315673828,-9.821683883666992,-6.042908668518066,-1.794393539428711,52128.0,46198.0,48331.0,47657.0,-0.29999491024331576,-0.5196181808098181,0.5
2.249,TAKEOFF,none,1.0,0.6271839141845703,0.0005518231191672385,0.40166205167770386,0.041370198130607605,0.05194608494639397,0.23211783170700073,0.6463058590888977,0.5671596527099609,3.187446355819702,-8.510503768920898,11.74855899810791,-3.495457172393799,47500.0,48036.0,50404.0,44622.0,0.6,0.0,0.5,-0.5194931626319885,0.5501351952552795,0.4468842148780823,-0.0022351148072630167,0.01589767076075077,0.17232275009155273,0.6037340760231018,-0.4909975230693817,1.871565818786621,0.40884554386138916,-5.018028259277344,0.5009874105453491,48510.0,47284.0,46072.0,43192.0,-0.3000025448675481,0.51961377298239,0.5,-0.4157962501049042,-0.5890449285507202,0.4172763526439667,-0.019239088520407677,-0.008297518827021122,0.1916593611240387,-0.084648497402668,-0.5682878494262695,2.8431954383850098,-12.685284614562988,-13.606067657470703,-2.643655300140381,51379.0,46593.0,49057.0,47302.0,-0.29999491024331576,-0.5196181808098181,0.5
2.269,TAKEOFF,none,1.0,0.6271839141845703,0.0005518231191672385,0.40166205167770386,0.039793241769075394,0.04987390339374542,0.2235453873872757,0.4928326904773712,0.35360243916511536,3.1080970764160156,-0.33918964862823486,9.045345306396484,-3.1814959049224854,48900.0,48257.0,49159.0,44452.0,0.6,0.0,0.5,-0.5194931626319885,0.5501351952552795,0.4468842148780823,-0.0020434281323105097,0.01812959462404251,0.17185162007808685,0.5545939207077026,-0.44516199827194214,1.877647042274475,1.3752667903900146,0.48475518822669983,0.7177780866622925,48528.0,46603.0,46062.0,43757.0,-0.3000025448675481,0.51961377298239,0.5,-0.4147472083568573,-0.591654896736145,0.43976908922195435,-0.019239088520407677,-0.008297518827021122,0.1916593611240387,-0.084648497402668,-0.5682878494262695,2.8431954383850098,-12.685284614562988,-13.606067657470703,-2.643655300140381,50423.0,46779.0,50306.0,47560.0,-0.29999491024331576,-0.5196181808098181,0.5
2.289,TAKEOFF,none,1.0,0.6271839141845703,0.0005518231191672385,0.40166205167770386,0.03884861245751381,0.04826423153281212,0.21306003630161285,0.46385905146598816,0.14718373119831085,3.1053667068481445,-1.456070065498352,1.4426217079162598,-3.007716417312622,47985.0,49180.0,50157.0,43268.0,0.6,0.0,0.5,-0.5194931626319885,0.5501351952552795,0.4468842148780823,0.00551388505846262,0.013095374219119549,0.16047489643096924,0.5986915826797485,-0.4866254925727844,1.8402520418167114,-5.069058895111084,3.1020922660827637,1.4346853494644165,49067.0,47364.0,45426.0,43018.0,-0.3000025448675481,0.51961377298239,0.5,-0.4147472083568573,-0.591654896736145,0.43976908922195435,-0.010946685448288918,-0.011778268963098526,0.1786566823720932,-0.42881181836128235,0.005975823849439621,2.7399330139160156,-4.1019086837768555,-15.380788803100586,-2.942124843597412,50884.0,47126.0,49906.0,47305.0,-0.29999491024331576,-0.5196181808098181,0.5
2.309,TAKEOFF,none,1.0,0.6271839141845703,0.0005518231191672385,0.40166205167770386,0.044784821569919586,0.04353612661361694,0.21279661357402802,0.4742603003978729,0.12833388149738312,3.03841495513916,1.7235136032104492,-2.211000442504883,-3.260516881942749,48872.0,49640.0,49247.0,42410.0,0.6,0.0,0.5,-0.5194931626319885,0.5501351952552795,0.4468842148780823,0.007305470760911703,0.011606280691921711,0.15861082077026367,0.5422214865684509,-0.5167099833488464,1.8591476678848267,-1.2599672079086304,-0.06967037916183472,1.0564830303192139,48965.0,46864.0,45677.0,43426.0,-0.3000025448675481,0.51961377298239,0.5,-0.4147472083568573,-0.591654896736145,0.43976908922195435,-0.013044741004705429,-0.009598838165402412,0.17742681503295898,-0.5634179711341858,0.40358537435531616,2.702681064605713,0.8495126366615295,-11.014196395874023,-3.2353734970092773,50980.0,47511.0,49789.0,47038.0,-0.29999491024331576,-0.5196181808098181,0.5
2.329,TAKEOFF,none,1.0,0.6328518986701965,0.0047339750453829765,0.4269758462905884,0.04703393206000328,0.04092535376548767,0.2100643515586853,0.5449356436729431,0.1603783369064331,3.0295820236206055,2.1942059993743896,-8.166559219360352,-2.7795498371124268,49003.0,49316.0,48966.0,42914.0,0.6,0.0,0.5,-0.517759382724762,0.5524632930755615,0.4639348089694977,0.004458458628505468,0.014769907109439373,0.15496376156806946,0.483499675989151,-0.46906349062919617,1.9370152950286865,0.37762027978897095,-3.625417709350586,1.4987449645996094,49078.0,47478.0,45580.0,42705.0,-0.3000025448675481,0.51961377298239,0.5,-0.4147472083568573,-0.591654896736145,0.43976908922195435,-0.026467878371477127,0.0013949942076578736,0.16344282031059265,-0.5426329374313354,0.6030703186988831,2.6446750164031982,4.5420966148376465,-3.316432237625122,-2.4122090339660645,51042.0,47717.0,49850.0,47054.0,-0.29999491024331576,-0.5196181808098181,0.5
2.349,TAKEOFF,none,1.0,0.6328518986701965,0.0047339750453829765,0.4269758462905884,0.046495452523231506,0.03906669467687607,0.20106244087219238,0.5861991047859192,0.30311504006385803,2.969247579574585,3.2697174549102783,-8.841816902160645,-2.912935733795166,47533.0,49173.0,50530.0,42978.0,0.6,0.0,0.5,-0.517759382724762,0.5524632930755615,0.4639348089694977,0.005922514479607344,0.013899622485041618,0.15078525245189667,0.4734562635421753,-0.4010081887245178,1.9669270515441895,-0.24664543569087982,-6.831452369689941,-0.6296858787536621,48975.0,47655.0,45528.0,42890.0,-0.3000025448675481,0.51961377298239,0.5,-0.4147472083568573,-0.591654896736145,0.43976908922195435,-0.029279883950948715,0.00011534524674061686,0.15610834956169128,-0.4379093647003174,0.6579392552375793,2.5681021213531494,6.494444847106934,5.207241058349609,-1.4004154205322266,51746.0,47386.0,49191.0,47377.0,-0.29999491024331576,-0.5196181808098181,0.5
2.369,TAKEOFF,none,1.0,0.6328518986701965,0.0047339750453829765,0.4269758462905884,0.032947465777397156,0.023116357624530792,0.1864558905363083,0.7447580099105835,0.588702380657196,2.9068715572357178,1.8472697734832764,-11.50324535369873,-2.56269907951355,48097.0,50026.0,49986.0,42057.0,0.6,0.0,0.5,-0.517759382724762,0.5524632930755615,0.4639348089694977,0.00875931978225708,0.01462460681796074,0.14185665547847748,0.4842189848423004,-0.2884143590927124,1.9273185729980469,-0.6173227429389954,-6.941892147064209,0.9592190980911255,49315.0,47666.0,45460.0,42839.0,-0.3000025448675481,0.51961377298239,0.5,-0.417763888835907,-0.592267632484436,0.4556601643562317,-0.031194474548101425,1.2536613212432712e-05,0.14952565729618073,-0.4379093647003174,0.6579392552375793,2.5681021213531494,6.494444847106934,5.207241058349609,-1.4004154205322266,52186.0,47212.0,48858.0,47584.0,-0.29999491024331576,-0.5196181808098181,0.5
2.389,TAKEOFF,none,1.0,0.6328518986701965,0.0047339750453829765,0.4269758462905884,0.031378183513879776,0.019572287797927856,0.17560932040214539,0.8077738285064697,0.7865041494369507,2.826768398284912,5.481368541717529,-4.830713748931885,-3.506943702697754,48273.0,50386.0,49572.0,42401.0,0.6,0.0,0.5,-0.517759382724762,0.5524632930755615,0.4639348089694977,0.011285695247352123,0.014008872210979462,0.13429757952690125,0.48334449529647827,-0.17601586878299713,1.9322006702423096,-1.4889767169952393,-5.060208797454834,-0.6883086562156677,48465.0,46909.0,46396.0,43889.0,-0.3000025448675481,0.51961377298239,0.5,-0.417763888835907,-0.592267632484436,0.4556601643562317,-0.015485737472772598,-0.007768817245960236,0.15459291636943817,-0.06761155277490616,0.1268710196018219,2.50793719291687,5.941929817199707,15.27312183380127,-0.06332224607467651,52914.0,47294.0,47981.0,47335.0,-0.29999491024331576,-0.5196181808098181,0.5
2.409,TAKEOFF,none,1.0,0.6328518986701965,0.0047339750453829765,0.4269758462905884,0.028875144198536873,0.016774483025074005,0.1652093529701233,0.8185681104660034,0.9071085453033447,2.7575528621673584,-4.688033103942871,-6.512077331542969,-2.7826778888702393,47511.0,49954.0,50245.0,43417.0,0.6,0.0,0.5,-0.517759382724762,0.5524632930755615,0.4639348089694977,0.012009619735181332,0.012418793514370918,0.12850108742713928,0.3973398506641388,-0.06662311404943466,1.9273892641067505,-4.073400497436523,-2.7973074913024902,-1.4359197616577148,48390.0,46515.0,46666.0,44270.0,-0.3000025448675481,0.51961377298239,0.5,-0.417763888835907,-0.592267632484436,0.4556601643562317,-0.01565847173333168,-0.0076552764512598515,0.1503545194864273,-0.06761155277490616,0.1268710196018219,2.50793719291687,5.941929817199707,15.27312183380127,-0.06332224607467651,52668.0,46553.0,48264.0,47935.0,-0.29999491024331576,-0.5196181808098181,0.5
2.429,TAKEOFF,none,1.0,0.6336856484413147,0.004496821202337742,0.4449331760406494,0.025987688452005386,0.01404131855815649,0.1539950668811798,0.7505863904953003,0.9873805046081543,2.7001125812530518,-7.227812767028809,1.7267086505889893,-3.087148666381836,48419.0,50082.0,49677.0,43280.0,0.6,0.0,0.5,-0.5140769481658936,0.5521977543830872,0.4757276773452759,0.02387634664773941,-0.003358611837029457,0.11330664157867432,0.4096125662326813,-0.07557661086320877,1.9365689754486084,-5.265333652496338,-5.248626232147217,-0.5769673585891724,48776.0,47604.0,46484.0,43430.0,-0.3000025448675481,0.51961377298239,0.5,-0.417763888835907,-0.592267632484436,0.4556601643562317,-0.01474686898291111,-0.007865511812269688,0.14658904075622559,0.05109266936779022,-0.19850267469882965,2.4992589950561523,4.9292778968811035,13.373397827148438,0.21450386941432953,52781.0,46313.0,48187.0,48144.0,-0.29999491024331576,-0.5196181808098181,0.5
2.449,TAKEOFF,none,1.0,0.6336856484413147,0.004496821202337742,0.4449331760406494,0.02482018619775772,0.015283116139471531,0.1511165350675583,0.6083240509033203,0.8834124803543091,2.643500566482544,-7.390702247619629,9.941113471984863,-2.536259412765503,49006.0,50147.0,49290.0,43279.0,0.6,0.0,0.5,-0.5140769481658936,0.5521977543830872,0.4757276773452759,0.022301705554127693,-0.0019526371033862233,0.11190929263830185,0.32951608300209045,0.03122115693986416,1.9678921699523926,-0.31284937262535095,-6.765086650848389,-0.4042160212993622,48700.0,48033.0,46501.0,42837.0,-0.3000025448675481,0.51961377298239,0.5,-0.417763888835907,-0.592267632484436,0.4556601643562317,-0.013143599033355713,-0.0082267289981246,0.14142681658267975,0.11922237277030945,-0.523033618927002,2.5049240589141846,-4.793900012969971,-1.922014832496643,0.11080257594585419,52118.0,46766.0,48997.0,47689.0,-0.29999491024331576,-0.5196181808098181,0.5
2.469,TAKEOFF,none,1.0,0.6336856484413147,0.004496821202337742,0.4449331760406494,0.022701838985085487,0.015839053317904472,0.14514750242233276,0.401754766702652,0.7074982523918152,2.5939781665802,-11.809261322021484,7.775963306427002,-3.100893974304199,48240.0,49196.0,50114.0,44458.0,0.6,0.0,0.5,-0.5140769481658936,0.5521977543830872,0.4757276773452759,0.02203206717967987,-0.0013760259607806802,0.1111474335193634,0.32146602869033813,0.18347622454166412,2.0004031658172607,-0.11575014889240265,-7.749747276306152,0.5500546097755432,49172.0,47826.0,46070.0,42937.0,-0.3000025448675481,0.51961377298239,0.5,-0.415846586227417,-0.5952633023262024,0.4718160629272461,-0.013143599033355713,-0.0082267289981246,0.14142681658267975,0.11922237277030945,-0.523033618927002,2.5049240589141846,-4.793900012969971,-1.922014832496643,0.11080257594585419,51800.0,46804.0,49370.0,47689.0,-0.29999491024331576,-0.5196181808098181,0.5
2.489,TAKEOFF,none,1.0,0.6336856484413147,0.004496821202337742,0.4449331760406494,0.022138873115181923,0.017443105578422546,0.14402320981025696,0.24730587005615234,0.43125274777412415,2.4521961212158203,-15.63737678527832,8.234040260314941,-0.10334765166044235,48787.0,49020.0,49602.0,44761.0,0.6,0.0,0.5,-0.5140769481658936,0.5521977543830872,0.4757276773452759,0.03138462081551552,-0.010424423962831497,0.09416387230157852,0.3969123661518097,0.24707821011543274,1.9695812463760376,-1.0379126071929932,-5.251770973205566,-0.12866054475307465,48483.0,47972.0,47073.0,43385.0,-0.3000025448675481,0.51961377298239,0.5,-0.415846586227417,-0.5952633023262024,0.4718160629272461,-0.014265519566833973,0.00980355218052864,0.11483220756053925,-0.22445517778396606,-0.2957476079463959,2.567828416824341,-5.9969024658203125,-9.98720645904541,-0.4657234251499176,51873.0,47105.0,49828.0,46823.0,-0.29999491024331576,-0.5196181808098181,0.5
2.509,TAKEOFF,none,1.0,0.6336856484413147,0.004496821202337742,0.4449331760406494,0.02678583189845085,0.002617012243717909,0.14455637335777283,-0.009452467784285545,0.23475217819213867,2.435302734375,-8.520829200744629,6.211629867553711,-0.7243136763572693,48464.0,49083.0,49926.0,44189.0,0.6,0.0,0.5,-0.5140769481658936,0.5521977543830872,0.4757276773452759,0.030692454427480698,-0.011785076931118965,0.09160438179969788,0.33825138211250305,0.37406694889068604,1.9594428539276123,-3.174933433532715,-6.49772310256958,-0.08242949098348618,49433.0,47495.0,46036.0,44001.0,-0.3000025448675481,0.51961377298239,0.5,-0.415846586227417,-0.5952633023262024,0.4718160629272461,-0.009556989185512066,0.00919311959296465,0.10873164981603622,-0.3399582803249359,-0.11952823400497437,2.5870418548583984,-3.457526922225952,-9.178399085998535,-2.112287759780884,51636.0,46664.0,50415.0,47793.0,-0.29999491024331576,-0.5196181808098181,0.5
2.529,TAKEOFF,none,1.0,0.6380702257156372,0.004370860755443573,0.46351107954978943,0.025580063462257385,0.004945185501128435,0.1451948583126068,-0.009452467784285545,0.23475217819213867,2.435302734375,-8.520829200744629,6.211629867553711,-0.7243136763572693,48411.0,48967.0,50106.0,44140.0,0.6,0.0,0.5,-0.5140769481658936,0.5521977543830872,0.4757276773452759,0.029527578502893448,-0.013090702705085278,0.08847630023956299,0.2591087818145752,0.47374770045280457,1.9428921937942505,-6.6855926513671875,-4.11188268661499,-0.45256248116493225,48123.0,47727.0,47658.0,43642.0,-0.3000025448675481,0.51961377298239,0.5,-0.415846586227417,-0.5952633023262024,0.4718160629272461,-0.009363758377730846,0.010419885627925396,0.10615972429513931,-0.3399582803249359,-0.11952823400497437,2.5870418548583984,-3.457526922225952,-9.178399085998535,-2.112287759780884,51703.0,46978.0,50450.0,47793.0,-0.29999491024331576,-0.5196181808098181,0.5
2.549,TAKEOFF,none,1.0,0.6380702257156372,0.004370860755443573,0.46351107954978943,0.02765958197414875,0.010288137011229992,0.13542182743549347,-0.37756747007369995,0.041408389806747437,2.4024641513824463,-5.715568542480469,0.20213991403579712,0.5288106799125671,48588.0,49100.0,50148.0,43587.0,0.6,0.0,0.5,-0.510078489780426,0.5519959926605225,0.4862413704395294,0.022674571722745895,0.0018573483685031533,0.09294125437736511,-0.007087614852935076,0.6397314667701721,1.971025824546814,-7.368632793426514,-6.854608535766602,0.1224745661020279,48592.0,47728.0,46922.0,43514.0,-0.3000025448675481,0.51961377298239,0.5,-0.415846586227417,-0.5952633023262024,0.4718160629272461,-0.01250618975609541,0.012957610189914703,0.10177111625671387,-0.4009914994239807,0.20102931559085846,2.5530357360839844,5.734060287475586,-0.5926247835159302,-2.1810410022735596,51488.0,47527.0,50662.0,47468.0,-0.29999491024331576,-0.5196181808098181,0.5
