timestamp_sec,flight_state,fault_type,fault_motor_health,cf1_X,cf1_Y,cf1_Z,cf1_VelX,cf1_VelY,cf1_VelZ,cf1_Roll,cf1_Pitch,cf1_Yaw,cf1_GyroX,cf1_GyroY,cf1_GyroZ,cf1_Motor1,cf1_Motor2,cf1_Motor3,cf1_Motor4,cf1_targ_x,cf1_targ_y,cf1_targ_z,cf2_X,cf2_Y,cf2_Z,cf2_VelX,cf2_VelY,cf2_VelZ,cf2_Roll,cf2_Pitch,cf2_Yaw,cf2_GyroX,cf2_GyroY,cf2_GyroZ,cf2_Motor1,cf2_Motor2,cf2_Motor3,cf2_Motor4,cf2_targ_x,cf2_targ_y,cf2_targ_z,cf3_X,cf3_Y,cf3_Z,cf3_VelX,cf3_VelY,cf3_VelZ,cf3_Roll,cf3_Pitch,cf3_Yaw,cf3_GyroX,cf3_GyroY,cf3_GyroZ,cf3_Motor1,cf3_Motor2,cf3_Motor3,cf3_Motor4,cf3_targ_x,cf3_targ_y,cf3_targ_z
0.001,TAKEOFF,incipient,1.0,0.5959427952766418,0.004877977538853884,0.0011753004509955645,0.0,0.0,0.0,0.0,0.0,0.0,0.0,0.0,0.0,0.0,0.0,0.0,0.0,0.6,0.0,0.5,-0.34798693656921387,0.5198113322257996,0.0038048583082854748,0.0,0.0,0.0,0.0,0.0,0.0,0.0,0.0,0.0,0.0,0.0,0.0,0.0,-0.3000025448675481,0.51961377298239,0.5,-0.34528854489326477,-0.5793353915214539,0.004762438125908375,0.0,0.0,0.0,0.0,0.0,0.0,0.0,0.0,0.0,0.0,0.0,0.0,0.0,-0.29999491024331576,-0.5196181808098181,0.5
0.019,TAKEOFF,incipient,1.0,0.6038278341293335,0.008117067627608776,0.00028445105999708176,0.03099619783461094,0.030883314087986946,-0.011969069018959999,0.11086547374725342,0.15220880508422852,-1.1648287773132324,-0.0029915946070104837,-0.12712949514389038,-0.1407114416360855,0.0,0.0,0.0,0.0,0.6,0.0,0.5,-0.34798693656921387,0.5198113322257996,0.0038048583082854748,-0.01949073001742363,0.013706271536648273,0.008104018867015839,0.5747807621955872,-1.323195457458496,1.6644346714019775,-0.3247789144515991,0.20555667579174042,0.10930046439170837,0.0,0.0,0.0,0.0,-0.3000025448675481,0.51961377298239,0.5,-0.34528854489326477,-0.5793353915214539,0.004762438125908375,0.0253109373152256,-0.02242678590118885,-0.0051557039842009544,0.4980001747608185,0.2530079483985901,-2.6093575954437256,0.14854814112186432,-0.07720847427845001,-0.11810122430324554,0.0,0.0,0.0,0.0,-0.29999491024331576,-0.5196181808098181,0.5
0.041,TAKEOFF,incipient,1.0,0.6038278341293335,0.008117067627608776,0.00028445105999708176,0.029789181426167488,0.03194139152765274,-0.014573357999324799,0.11219816654920578,0.16538287699222565,-1.1121596097946167,0.06317138671875,0.11523143202066422,0.1086566150188446,0.0,0.0,0.0,0.0,0.6,0.0,0.5,-0.34901633858680725,0.5212942957878113,0.004469459410756826,-0.019963812083005905,0.014012612402439117,0.008017721585929394,0.5695741176605225,-1.3182721138000488,1.6612894535064697,-0.10174431651830673,0.28280436992645264,0.18687944114208221,0.0,0.0,0.0,0.0,-0.3000025448675481,0.51961377298239,0.5,-0.34528854489326477,-0.5793353915214539,0.004762438125908375,0.026328925043344498,-0.020173396915197372,0.0055628870613873005,0.5207843780517578,0.1738101840019226,-2.599595546722412,-0.2949671149253845,0.4737080931663513,0.027482857927680016,0.0,0.0,0.0,0.0,-0.29999491024331576,-0.5196181808098181,0.5
0.059,TAKEOFF,incipient,1.0,0.5969246625900269,0.005803762003779411,0.0020207588095217943,-0.010301871225237846,0.0026071700267493725,0.0011136066168546677,0.33173274993896484,0.44424310326576233,-1.0837645530700684,-0.20553667843341827,-0.34958183765411377,-0.32658708095550537,38974.0,40837.0,39499.0,39975.0,0.6,0.0,0.5,-0.34901633858680725,0.5212942957878113,0.004469459410756826,-0.020288100466132164,0.01435845997184515,0.008332678116858006,0.5658068060874939,-1.3184393644332886,1.661150336265564,-0.13192912936210632,0.415010929107666,0.5129892826080322,41366.0,38881.0,40425.0,39723.0,-0.3000025448675481,0.51961377298239,0.5,-0.34528854489326477,-0.5793353915214539,0.004762438125908375,0.008870488964021206,-0.009472599253058434,0.0014784139348194003,0.4354809522628784,0.30887165665626526,-2.639430522918701,0.42237555980682373,-0.4357481598854065,1.2674485445022583,40124.0,41508.0,37892.0,41096.0,-0.29999491024331576,-0.5196181808098181,0.5
0.079,TAKEOFF,incipient,1.0,0.5969246625900269,0.005803762003779411,0.0020207588095217943,-0.01169973611831665,0.0019793894607573748,0.0034718066453933716,0.32835060358047485,0.43924224376678467,-1.0464998483657837,0.5591440796852112,0.013642461970448494,-4.936432361602783,38974.0,40837.0,39499.0,39975.0,0.6,0.0,0.5,-0.34901633858680725,0.5212942957878113,0.004469459410756826,0.014950691722333431,-0.008957264944911003,-0.005753539968281984,0.7446907758712769,-1.557730793952942,1.6455626487731934,0.5305567383766174,0.43424272537231445,3.565105676651001,41685.0,39207.0,41119.0,40530.0,-0.3000025448675481,0.51961377298239,0.5,-0.34528854489326477,-0.5793353915214539,0.004762438125908375,0.007745338603854179,-0.01091255247592926,0.0017997449031099677,0.434842586517334,0.3105814754962921,-2.632249355316162,0.5933591723442078,0.5184307098388672,-2.4876222610473633,40022.0,42618.0,38785.0,42087.0,-0.29999491024331576,-0.5196181808098181,0.5
0.099,TAKEOFF,incipient,1.0,0.5969246625900269,0.005803762003779411,0.0020207588095217943,0.0011785313254222274,0.004305777605623007,-0.005381009075790644,0.30359259247779846,0.33383724093437195,-1.0608938932418823,0.08838112652301788,0.6714827418327332,3.6559085845947266,41174.0,42018.0,40413.0,42191.0,0.6,0.0,0.5,-0.34901633858680725,0.5212942957878113,0.004469459410756826,0.030367936939001083,-0.01647847518324852,-0.011245406232774258,0.789351761341095,-1.6384907960891724,1.616979718208313,-0.7048998475074768,-0.8695865273475647,-0.26756006479263306,47121.0,40420.0,39549.0,43217.0,-0.3000025448675481,0.51961377298239,0.5,-0.34394899010658264,-0.5799620747566223,0.0060041481629014015,0.005732913967221975,-0.01490771770477295,0.001791772316209972,0.4519975483417511,0.3151332437992096,-2.679734230041504,1.2095725536346436,-1.0100665092468262,2.439082145690918,41550.0,42668.0,39407.0,44383.0,-0.29999491024331576,-0.5196181808098181,0.5
0.119,TAKEOFF,incipient,1.0,0.5969246625900269,0.005803762003779411,0.0020207588095217943,0.006279637571424246,0.0023795682936906815,-0.0069917370565235615,0.312151700258255,0.280693918466568,-1.1511551141738892,2.844193696975708,2.1656363010406494,-3.9939162731170654,43597.0,42124.0,39413.0,42676.0,0.6,0.0,0.5,-0.3421449363231659,0.5178472399711609,0.0014536210801452398,0.04263775795698166,-0.02140324003994465,-0.011924984864890575,0.8046718835830688,-1.6748263835906982,1.5707050561904907,-0.49696919322013855,0.5175037980079651,0.08816912770271301,47121.0,40420.0,39549.0,43217.0,-0.3000025448675481,0.51961377298239,0.5,-0.34394899010658264,-0.5799620747566223,0.0060041481629014015,0.022928914055228233,-0.026471983641386032,0.008903361856937408,0.5310617089271545,0.16838115453720093,-2.670201063156128,-1.2432752847671509,2.7243869304656982,0.7363551259040833,39710.0,45777.0,41834.0,44142.0,-0.29999491024331576,-0.5196181808098181,0.5
0.139,TAKEOFF,incipient,1.0,0.5969246625900269,0.005803762003779411,0.0020207588095217943,0.008124611340463161,-0.00015268927381839603,-0.0050950367003679276,0.30456724762916565,0.27321186661720276,-1.2356114387512207,-0.5370489954948425,-2.7068557739257812,2.1091384887695312,42565.0,43564.0,40799.0,42913.0,0.6,0.0,0.5,-0.3421449363231659,0.5178472399711609,0.0014536210801452398,0.0387585386633873,-0.028700437396764755,-0.00885504949837923,0.8352460861206055,-1.6067231893539429,1.5139487981796265,2.097644329071045,-0.9791848063468933,-7.515408039093018,45574.0,42282.0,41730.0,43431.0,-0.3000025448675481,0.51961377298239,0.5,-0.34394899010658264,-0.5799620747566223,0.0060041481629014015,0.028627827763557434,-0.03085923008620739,0.0074698966927826405,0.5765581130981445,0.13342024385929108,-2.5772740840911865,-0.936127245426178,0.7361077666282654,-3.1358609199523926,43096.0,47219.0,40726.0,45305.0,-0.29999491024331576,-0.5196181808098181,0.5
0.159,TAKEOFF,incipient,1.0,0.6054816246032715,0.006730015855282545,-7.661596464458853e-05,0.00715245958417654,-0.001161753898486495,-0.005642663221806288,0.322468101978302,0.24214708805084229,-1.2009645700454712,-7.734100818634033,-9.655454635620117,-5.177606582641602,44069.0,44592.0,37019.0,44832.0,0.6,0.0,0.5,-0.3421449363231659,0.5178472399711609,0.0014536210801452398,0.040752943605184555,-0.028224727138876915,-0.010730401612818241,0.8441404700279236,-1.5800626277923584,1.2405296564102173,0.6441274285316467,1.4366534948349,-23.59119415283203,45582.0,45451.0,39748.0,45170.0,-0.3000025448675481,0.51961377298239,0.5,-0.34394899010658264,-0.5799620747566223,0.0060041481629014015,0.02813546545803547,-0.03277072682976723,0.008764113299548626,0.5543391704559326,0.0969691053032875,-2.8054189682006836,-0.8091035485267639,1.1604127883911133,-17.21074676513672,44810.0,44744.0,40985.0,47790.0,-0.29999491024331576,-0.5196181808098181,0.5
0.18,TAKEOFF,incipient,1.0,0.6054816246032715,0.006730015855282545,-7.661596464458853e-05,-0.007972496561706066,-0.02001403272151947,-0.011427463963627815,0.3950640559196472,0.43457698822021484,-1.4446927309036255,3.283813238143921,8.331171989440918,-17.26993179321289,42469.0,46573.0,39813.0,44505.0,0.6,0.0,0.5,-0.3421449363231659,0.5178472399711609,0.0014536210801452398,0.04054800048470497,-0.03041740506887436,-0.004619412124156952,0.8259355425834656,-1.5844345092773438,0.7727880477905273,0.8416876196861267,2.6105470657348633,-22.917278289794922,45582.0,45451.0,39748.0,45170.0,-0.3000025448675481,0.51961377298239,0.5,-0.34394899010658264,-0.5799620747566223,0.0060041481629014015,0.02764783799648285,-0.034681666642427444,0.009372495114803314,0.48822644352912903,0.032449424266815186,-2.8722901344299316,-2.005789041519165,4.122720718383789,5.03999137878418,44810.0,44744.0,40985.0,47790.0,-0.29999491024331576,-0.5196181808098181,0.5
0.199,TAKEOFF,incipient,1.0,0.6054816246032715,0.006730015855282545,-7.661596464458853e-05,-0.007243659347295761,-0.014605917036533356,-0.01021223422139883,0.41202282905578613,0.3055421710014343,-1.8334990739822388,-3.5557572841644287,-4.462192535400391,-17.479785919189453,42469.0,46573.0,39813.0,44505.0,0.6,0.0,0.5,-0.3421449363231659,0.5178472399711609,0.0014536210801452398,0.047464773058891296,-0.03219322860240936,-0.004176854621618986,0.8259355425834656,-1.5844345092773438,0.7727880477905273,0.8416876196861267,2.6105470657348633,-22.917278289794922,44137.0,44705.0,40664.0,47058.0,-0.3000025448675481,0.51961377298239,0.5,-0.3373608887195587,-0.585828959941864,0.007544463500380516,0.02413473278284073,-0.030596399679780006,0.003412177786231041,0.5053160190582275,0.1257363110780716,-2.777322769165039,5.521574020385742,-4.184236526489258,2.9632699489593506,45132.0,48475.0,42747.0,43907.0,-0.29999491024331576,-0.5196181808098181,0.5
0.219,TAKEOFF,incipient,1.0,0.6054816246032715,0.006730015855282545,-7.661596464458853e-05,-0.006159078795462847,-0.009677236899733543,-0.018051663413643837,0.3064219057559967,0.3625751733779907,-2.1954898834228516,-2.5855650901794434,-3.5784640312194824,-11.07262897491455,38931.0,44317.0,44086.0,46988.0,0.6,0.0,0.5,-0.3421449363231659,0.5178472399711609,0.0014536210801452398,0.03596929460763931,-0.02240205928683281,0.0020968874450773,0.8164283633232117,-1.5693728923797607,0.17652897536754608,-3.144907236099243,2.532757520675659,-25.823863983154297,44892.0,45625.0,34633.0,50609.0,-0.3000025448675481,0.51961377298239,0.5,-0.3373608887195587,-0.585828959941864,0.007544463500380516,0.023756738752126694,-0.03219259902834892,0.004522118251770735,0.508930504322052,0.18167561292648315,-2.6272671222686768,6.311807632446289,-8.780895233154297,13.416301727294922,45248.0,45729.0,43652.0,47795.0,-0.29999491024331576,-0.5196181808098181,0.5
0.239,TAKEOFF,incipient,1.0,0.6054816246032715,0.006730015855282545,-7.661596464458853e-05,-0.015995441004633904,-0.017575662583112717,-0.013075207360088825,0.324287474155426,0.4399895966053009,-2.477252960205078,6.662783622741699,10.350504875183105,-20.371728897094727,42880.0,42931.0,40653.0,48793.0,0.6,0.0,0.5,-0.3432016670703888,0.517959713935852,0.0011514079524204135,0.030555933713912964,-0.01596924476325512,0.01426716148853302,0.6105242371559143,-1.362274169921875,-0.22613127529621124,-1.2107034921646118,1.207908272743225,-13.503300666809082,46833.0,42404.0,41797.0,47547.0,-0.3000025448675481,0.51961377298239,0.5,-0.3373608887195587,-0.585828959941864,0.007544463500380516,0.02047109790146351,-0.030061550438404083,0.001360216992907226,0.4579366147518158,0.1961478441953659,-2.4963998794555664,-1.9405534267425537,7.259376525878906,3.4833147525787354,46904.0,43132.0,43632.0,50074.0,-0.29999491024331576,-0.5196181808098181,0.5
0.259,TAKEOFF,incipient,1.0,0.5961456298828125,0.003211202332749963,-0.001041025621816516,-0.0203815046697855,-0.0181141160428524,-0.014587072655558586,0.5116356015205383,0.2810520827770233,-2.9270288944244385,-9.322402954101562,-6.163804054260254,-26.91683006286621,41525.0,50179.0,40851.0,43493.0,0.6,0.0,0.5,-0.3432016670703888,0.517959713935852,0.0011514079524204135,0.03525193780660629,-0.018100691959261894,0.015502017922699451,0.6105242371559143,-1.362274169921875,-0.22613127529621124,-1.2107034921646118,1.207908272743225,-13.503300666809082,45439.0,46658.0,41502.0,45417.0,-0.3000025448675481,0.51961377298239,0.5,-0.3373608887195587,-0.585828959941864,0.007544463500380516,0.016679896041750908,-0.02807462401688099,-0.002300534164533019,0.4978884160518646,0.2332489788532257,-2.339019536972046,1.0456666946411133,1.0752806663513184,10.608282089233398,46272.0,49269.0,45497.0,44576.0,-0.29999491024331576,-0.5196181808098181,0.5
0.28,TAKEOFF,incipient,1.0,0.5961456298828125,0.003211202332749963,-0.001041025621816516,-0.0215729009360075,-0.019571788609027863,-0.01933981664478779,0.352317214012146,0.4427020251750946,-3.4558074474334717,-6.535633087158203,-12.374688148498535,-17.443115234375,44289.0,50524.0,41047.0,42781.0,0.6,0.0,0.5,-0.3432016670703888,0.517959713935852,0.0011514079524204135,0.03999371454119682,-0.02031657099723816,0.02201942913234234,0.5939206480979919,-1.3499817848205566,-0.7621681690216064,5.614795684814453,-6.275708198547363,-6.344686508178711,47168.0,43034.0,40526.0,48857.0,-0.3000025448675481,0.51961377298239,0.5,-0.3373608887195587,-0.585828959941864,0.007544463500380516,-0.023374928161501884,0.024168694391846657,-0.008873911574482918,0.021169595420360565,0.5052811503410339,-2.1177597045898438,-10.784387588500977,12.778240203857422,17.703004837036133,47269.0,46848.0,45263.0,47345.0,-0.29999491024331576,-0.5196181808098181,0.5
0.301,TAKEOFF,incipient,1.0,0.5961456298828125,0.003211202332749963,-0.001041025621816516,-0.023008685559034348,-0.020899008959531784,-0.01611282117664814,0.30348020792007446,0.5234767198562622,-3.732884407043457,3.3432581424713135,9.234511375427246,-7.635830402374268,44289.0,50524.0,41047.0,42781.0,0.6,0.0,0.5,-0.3432016670703888,0.517959713935852,0.0011514079524204135,0.04458872228860855,-0.022532528266310692,0.025315597653388977,0.5939206480979919,-1.3499817848205566,-0.7621681690216064,5.614795684814453,-6.275708198547363,-6.344686508178711,47479.0,46542.0,42026.0,45960.0,-0.3000025448675481,0.51961377298239,0.5,-0.34161967039108276,-0.5790855288505554,0.004354554228484631,-0.025253180414438248,0.024053890258073807,-0.0057783969677984715,-0.18120211362838745,0.28835242986679077,-1.7866482734680176,1.1243611574172974,2.516500473022461,11.981740951538086,42573.0,45217.0,51461.0,48412.0,-0.29999491024331576,-0.5196181808098181,0.5
0.32,TAKEOFF,incipient,1.0,0.5961456298828125,0.003211202332749963,-0.001041025621816516,-0.024872781708836555,-0.021748961880803108,-0.02015790157020092,0.44299283623695374,0.37049534916877747,-3.841092348098755,7.429196834564209,7.399754524230957,-0.20949846506118774,44942.0,48192.0,41788.0,45868.0,0.6,0.0,0.5,-0.34145352244377136,0.5178053975105286,0.004102575592696667,0.04898392781615257,-0.024833541363477707,0.02608957327902317,0.6557300090789795,-1.2917145490646362,-0.9048324823379517,1.1262232065200806,-3.584756851196289,0.10328388214111328,47138.0,43320.0,42680.0,48437.0,-0.3000025448675481,0.51961377298239,0.5,-0.34161967039108276,-0.5790855288505554,0.004354554228484631,-0.02638925053179264,0.024569911882281303,-0.006182401441037655,-0.013632843270897865,0.47491616010665894,-1.624375581741333,22.478708267211914,-24.371036529541016,3.1942226886749268,47716.0,50163.0,46746.0,44891.0,-0.29999491024331576,-0.5196181808098181,0.5
0.339,TAKEOFF,incipient,1.0,0.5961456298828125,0.003211202332749963,-0.001041025621816516,0.0042960150167346,-0.027104301378130913,-0.027836082503199577,0.5709789991378784,0.03271083906292915,-3.9316606521606445,-3.5698013305664062,-5.224357604980469,-7.517144203186035,41683.0,48360.0,45492.0,46799.0,0.6,0.0,0.5,-0.34145352244377136,0.5178053975105286,0.004102575592696667,0.05342725291848183,-0.027188587933778763,0.028981320559978485,0.6402977108955383,-1.2777711153030396,-0.873066246509552,2.323087692260742,-2.349797487258911,4.972321510314941,48644.0,43778.0,42318.0,48777.0,-0.3000025448675481,0.51961377298239,0.5,-0.34161967039108276,-0.5790855288505554,0.004354554228484631,-0.027780693024396896,0.024910656735301018,-0.0013335272669792175,0.16353072226047516,0.6431601047515869,-1.6287702322006226,-19.108421325683594,13.320576667785645,2.2605254650115967,45643.0,47449.0,48414.0,49286.0,-0.29999491024331576,-0.5196181808098181,0.5
0.361,TAKEOFF,incipient,1.0,0.5973280668258667,0.002127265091985464,-0.0005443112459033728,-0.004827423952519894,-0.01533595472574234,-0.002396478084847331,0.3881029188632965,0.23013722896575928,-4.085947036743164,-4.094099044799805,-4.763740539550781,-9.375822067260742,43214.0,46846.0,43746.0,48296.0,0.6,0.0,0.5,-0.34145352244377136,0.5178053975105286,0.004102575592696667,0.05772373825311661,-0.029474468901753426,0.028289850801229477,0.664267897605896,-1.2599714994430542,-0.7585971355438232,0.6124500632286072,-1.4084701538085938,9.636035919189453,49181.0,44493.0,42402.0,47546.0,-0.3000025448675481,0.51961377298239,0.5,-0.34161967039108276,-0.5790855288505554,0.004354554228484631,-0.038625601679086685,0.014620414935052395,-0.003757263533771038,-0.19623398780822754,0.26012659072875977,-1.5345667600631714,-7.274966716766357,7.455455303192139,10.164748191833496,49796.0,45291.0,45035.0,50998.0,-0.29999491024331576,-0.5196181808098181,0.5
0.384,TAKEOFF,incipient,1.0,0.5973280668258667,0.002127265091985464,-0.0005443112459033728,-0.005776336416602135,-0.016504108905792236,-0.002991101238876581,0.31672078371047974,0.2969410717487335,-4.277774810791016,-3.754152297973633,-4.435736656188965,-11.606484413146973,42986.0,49371.0,43563.0,46946.0,0.6,0.0,0.5,-0.34145352244377136,0.5178053975105286,0.004102575592696667,0.020570339635014534,-0.00029312484548427165,0.04251522198319435,0.42456895112991333,-0.8923876285552979,-0.5898210406303406,1.4906651973724365,-0.4534042179584503,-2.1700050830841064,49466.0,45021.0,43398.0,47822.0,-0.3000025448675481,0.51961377298239,0.5,-0.34161967039108276,-0.5790855288505554,0.004354554228484631,-0.03959561884403229,0.01399191003292799,0.005784220062196255,-0.1537884920835495,0.2974696755409241,-1.367937445640564,14.77032470703125,-1.6333296298980713,11.99445629119873,45175.0,51629.0,52056.0,44507.0,-0.29999491024331576,-0.5196181808098181,0.5
0.399,TAKEOFF,incipient,1.0,0.5973280668258667,0.002127265091985464,-0.0005443112459033728,-0.005776336416602135,-0.016504108905792236,-0.002991101238876581,0.31672078371047974,0.2969410717487335,-4.277774810791016,-3.754152297973633,-4.435736656188965,-11.606484413146973,42986.0,49371.0,43563.0,46946.0,0.6,0.0,0.5,-0.34145352244377136,0.5178053975105286,0.004102575592696667,0.020570339635014534,-0.00029312484548427165,0.04251522198319435,0.42456895112991333,-0.8923876285552979,-0.5898210406303406,1.4906651973724365,-0.4534042179584503,-2.1700050830841064,49466.0,45021.0,43398.0,47822.0,-0.3000025448675481,0.51961377298239,0.5,-0.34566986560821533,-0.5787636041641235,0.005230010487139225,-0.03959561884403229,0.01399191003292799,0.005784220062196255,-0.1537884920835495,0.2974696755409241,-1.367937445640564,14.77032470703125,-1.6333296298980713,11.99445629119873,45175.0,51629.0,52056.0,44507.0,-0.29999491024331576,-0.5196181808098181,0.5
0.421,TAKEOFF,incipient,1.0,0.5973280668258667,0.002127265091985464,-0.0005443112459033728,-0.007623189594596624,-0.017816675826907158,-0.0032860469073057175,0.19471220672130585,0.43291592597961426,-4.573425769805908,-2.8982019424438477,-1.1226115226745605,5.260091304779053,44054.0,48874.0,45177.0,47600.0,0.6,0.0,0.5,-0.34247520565986633,0.5240870118141174,0.004962960258126259,0.03755342215299606,0.008205100893974304,0.02215913124382496,0.36900487542152405,-0.9078303575515747,-0.7117613554000854,4.4312543869018555,-9.722746849060059,-1.7550965547561646,47858.0,45004.0,43943.0,49084.0,-0.3000025448675481,0.51961377298239,0.5,-0.34566986560821533,-0.5787636041641235,0.005230010487139225,-0.03796566650271416,0.015030811540782452,0.008064333349466324,0.20511026680469513,0.6627664566040039,-0.7760519981384277,-17.573720932006836,15.516949653625488,17.73796272277832,48384.0,50726.0,50461.0,45136.0,-0.29999491024331576,-0.5196181808098181,0.5
0.443,TAKEOFF,incipient,1.0,0.5973280668258667,0.002127265091985464,-0.0005443112459033728,-0.00914285983890295,-0.018365971744060516,-0.002696193289011717,0.18492750823497772,0.4402080178260803,-4.486647605895996,1.9082365036010742,1.044504165649414,2.77962064743042,45008.0,48793.0,45905.0,48200.0,0.6,0.0,0.5,-0.34247520565986633,0.5240870118141174,0.004962960258126259,0.03430726379156113,0.010383355431258678,0.028122588992118835,0.36900487542152405,-0.9078303575515747,-0.7117613554000854,4.4312543869018555,-9.722746849060059,-1.7550965547561646,48673.0,46004.0,44943.0,49336.0,-0.3000025448675481,0.51961377298239,0.5,-0.34566986560821533,-0.5787636041641235,0.005230010487139225,-0.03917528688907623,0.014077432453632355,0.005072555039077997,-0.05307959392666817,0.22965936362743378,-0.37157443165779114,-21.32600975036621,14.380563735961914,17.333293914794922,50209.0,46850.0,49877.0,49525.0,-0.29999491024331576,-0.5196181808098181,0.5
0.46,TAKEOFF,incipient,1.0,0.5965458154678345,0.00036856989027000964,-0.0008480477845296264,-0.010716165415942669,-0.018850291147828102,-0.0006430682260543108,0.22935061156749725,0.4339906871318817,-4.416680812835693,0.6204833388328552,-1.696019172668457,5.878636837005615,45008.0,48793.0,45905.0,48200.0,0.6,0.0,0.5,-0.34247520565986633,0.5240870118141174,0.004962960258126259,0.03308863937854767,0.009956330992281437,0.029128875583410263,0.35291430354118347,-0.4458877742290497,-0.8294179439544678,5.562807083129883,-8.662591934204102,0.13451699912548065,47875.0,46483.0,46179.0,49390.0,-0.3000025448675481,0.51961377298239,0.5,-0.34566986560821533,-0.5787636041641235,0.005230010487139225,-0.029201623052358627,0.006193525157868862,0.010516749694943428,-0.1695186346769333,-0.014199532568454742,-0.07464217394590378,8.953415870666504,3.986652135848999,12.361248970031738,51637.0,47833.0,48459.0,49485.0,-0.29999491024331576,-0.5196181808098181,0.5
0.48,TAKEOFF,incipient,1.0,0.5965458154678345,0.00036856989027000964,-0.0008480477845296264,-0.017653483897447586,0.008028525859117508,0.02623703144490719,-0.019276026636362076,0.48247843980789185,-4.3151116371154785,-1.297070860862732,-8.027918815612793,3.887732744216919,43724.0,48508.0,46667.0,48225.0,0.6,0.0,0.5,-0.34247520565986633,0.5240870118141174,0.004962960258126259,0.03384136036038399,0.010021421127021313,0.029696738347411156,0.3660314679145813,-0.23770791292190552,-0.7766448259353638,0.9245749711990356,-12.43192195892334,9.376358032226562,49294.0,47319.0,45799.0,48722.0,-0.3000025448675481,0.51961377298239,0.5,-0.34566986560821533,-0.5787636041641235,0.005230010487139225,-0.027865611016750336,0.008749358355998993,0.014511821791529655,-0.05038142204284668,-0.06910961866378784,0.05917312577366829,11.63232707977295,-8.519401550292969,12.080849647521973,50570.0,51679.0,50631.0,46085.0,-0.29999491024331576,-0.5196181808098181,0.5
0.499,TAKEOFF,incipient,1.0,0.5965458154678345,0.00036856989027000964,-0.0008480477845296264,-0.021254925057291985,0.014297819696366787,0.034947946667671204,-0.22512993216514587,0.5689510703086853,-4.307160377502441,0.2917749285697937,0.9345235824584961,10.47531509399414,46498.0,50772.0,47078.0,46209.0,0.6,0.0,0.5,-0.34247520565986633,0.5240870118141174,0.004962960258126259,0.03496953099966049,0.008253020234405994,0.025076519697904587,0.41891545057296753,-0.02955721504986286,-0.5719844698905945,-8.035148620605469,-15.938901901245117,13.983134269714355,51004.0,47270.0,45851.0,48327.0,-0.3000025448675481,0.51961377298239,0.5,-0.3413359224796295,-0.5809098482131958,0.006496948190033436,-0.02470105141401291,0.007410646416246891,0.014083524234592915,0.21836881339550018,0.05190829187631607,0.3427222967147827,20.51238250732422,-19.572113037109375,11.140636444091797,50482.0,54434.0,51467.0,42948.0,-0.29999491024331576,-0.5196181808098181,0.5
0.519,TAKEOFF,incipient,1.0,0.5965458154678345,0.00036856989027000964,-0.0008480477845296264,-0.01898209936916828,0.030476991087198257,0.010162129998207092,-0.23213163018226624,0.5592074394226074,-4.173423767089844,9.795680046081543,6.292291641235352,11.359903335571289,46498.0,50772.0,47078.0,46209.0,0.6,0.0,0.5,-0.34315019845962524,0.5263786315917969,0.006210192106664181,0.03408246114850044,0.008638505823910236,0.02482832781970501,0.3741830885410309,0.3257932960987091,-0.2339804768562317,5.3792619705200195,-19.14101219177246,14.4246826171875,49926.0,47647.0,48956.0,48277.0,-0.3000025448675481,0.51961377298239,0.5,-0.3413359224796295,-0.5809098482131958,0.006496948190033436,-0.025173112750053406,0.00630957679823041,0.011548168025910854,0.7335021495819092,0.4405655264854431,0.5901350975036621,17.47867202758789,-19.546649932861328,13.872664451599121,52385.0,39686.0,50807.0,56164.0,-0.29999491024331576,-0.5196181808098181,0.5
0.539,TAKEOFF,incipient,1.0,0.5965458154678345,0.00036856989027000964,-0.0008480477845296264,-0.018215786665678024,0.03394221514463425,0.002566901035606861,-0.10551845282316208,0.41082972288131714,-3.9650535583496094,0.27892938256263733,8.873465538024902,6.033390045166016,46806.0,51867.0,47139.0,46248.0,0.6,0.0,0.5,-0.34315019845962524,0.5263786315917969,0.006210192106664181,0.0469667874276638,-0.0012856858083978295,0.017529143020510674,0.3741830885410309,0.3257932960987091,-0.2339804768562317,5.3792619705200195,-19.14101219177246,14.4246826171875,49694.0,46333.0,49552.0,49932.0,-0.3000025448675481,0.51961377298239,0.5,-0.3413359224796295,-0.5809098482131958,0.006496948190033436,-0.01974317990243435,-0.004936494864523411,0.015814220532774925,0.7335021495819092,0.4405655264854431,0.5901350975036621,17.47867202758789,-19.546649932861328,13.872664451599121,52385.0,39686.0,50807.0,56164.0,-0.29999491024331576,-0.5196181808098181,0.5
0.559,TAKEOFF,incipient,1.0,0.5919471979141235,0.013257261365652084,0.0016147852875292301,-0.02141626365482807,0.03644685074687004,0.004643112421035767,-0.052485790103673935,0.3721439838409424,-3.8386664390563965,-3.558985948562622,-4.607049465179443,6.7412261962890625,45814.0,48570.0,48307.0,50577.0,0.6,0.0,0.5,-0.34315019845962524,0.5263786315917969,0.006210192106664181,0.04520101845264435,-0.002859643427655101,0.020458539947867393,0.4184529185295105,0.6099899411201477,0.009357142262160778,4.529578685760498,-35.746681213378906,11.678106307983398,50749.0,50106.0,48964.0,46694.0,-0.3000025448675481,0.51961377298239,0.5,-0.3413359224796295,-0.5809098482131958,0.006496948190033436,-0.021172862499952316,-0.00762099027633667,0.014959975145757198,0.5485488176345825,0.01246525440365076,1.1880065202713013,-9.715468406677246,25.796079635620117,11.941083908081055,53199.0,48529.0,50884.0,50384.0,-0.29999491024331576,-0.5196181808098181,0.5
0.579,TAKEOFF,incipient,1.0,0.5919471979141235,0.013257261365652084,0.0016147852875292301,-0.023793691769242287,0.038589704781770706,0.013362831436097622,-0.10513886064291,0.5162105560302734,-3.676941156387329,0.4082562327384949,-9.508955955505371,10.225566864013672,46026.0,51216.0,49982.0,47786.0,0.6,0.0,0.5,-0.34315019845962524,0.5263786315917969,0.006210192106664181,0.026367342099547386,0.003946688491851091,0.03457256779074669,0.47852298617362976,1.2324177026748657,0.2171628177165985,0.22082597017288208,-40.693756103515625,7.55996561050415,49557.0,49987.0,51283.0,47109.0,-0.3000025448675481,0.51961377298239,0.5,-0.3413359224796295,-0.5809098482131958,0.006496948190033436,-0.02078299969434738,-0.009266577661037445,0.006698040757328272,0.2979525327682495,-0.5224511623382568,1.4279699325561523,-36.14901351928711,5.513612747192383,10.578128814697266,53322.0,46758.0,51169.0,52988.0,-0.29999491024331576,-0.5196181808098181,0.5
0.599,TAKEOFF,incipient,1.0,0.5919471979141235,0.013257261365652084,0.0016147852875292301,-0.02644798904657364,0.04077025130391121,0.015565247274935246,-0.11399601399898529,0.6384416222572327,-3.5021042823791504,1.5562719106674194,-8.276297569274902,13.065505027770996,47447.0,52216.0,50113.0,47019.0,0.6,0.0,0.5,-0.34315019845962524,0.5263786315917969,0.006210192106664181,0.016803059726953506,-0.0013776688138023019,0.03551821410655975,0.5289816856384277,2.9079177379608154,0.41445988416671753,13.806644439697266,-46.78168487548828,1.3332505226135254,48238.0,53091.0,51424.0,44555.0,-0.3000025448675481,0.51961377298239,0.5,-0.34058600664138794,-0.5822589993476868,0.007669296581298113,0.00907107163220644,-0.026149950921535492,-0.0032267735805362463,-0.22854755818843842,-0.8989675641059875,1.671303153038025,17.569345474243164,-25.428728103637695,14.231353759765625,51153.0,48196.0,54180.0,52572.0,-0.29999491024331576,-0.5196181808098181,0.5
0.619,TAKEOFF,incipient,1.0,0.5919471979141235,0.013257261365652084,0.0016147852875292301,-0.018956931307911873,0.04174208268523216,0.005927615333348513,-0.07091481238603592,0.7218824028968811,-3.275973320007324,18.82619857788086,-7.33278751373291,16.390344619750977,47447.0,52216.0,50113.0,47019.0,0.6,0.0,0.5,-0.34131667017936707,0.5266093611717224,0.008346322923898697,0.0010733146918937564,0.003018688876181841,0.04531769081950188,0.6524311304092407,3.8379621505737305,0.4214312434196472,-3.3487017154693604,-53.44855499267578,-5.586207866668701,48706.0,53050.0,51221.0,45795.0,-0.3000025448675481,0.51961377298239,0.5,-0.34058600664138794,-0.5822589993476868,0.007669296581298113,0.012026521377265453,-0.025260120630264282,0.012631133198738098,-0.11006534844636917,-0.5049925446510315,1.9054678678512573,16.429920196533203,-21.401784896850586,10.468844413757324,54023.0,53588.0,52548.0,46895.0,-0.29999491024331576,-0.5196181808098181,0.5
0.639,TAKEOFF,incipient,1.0,0.5919471979141235,0.013257261365652084,0.0016147852875292301,-0.023429326713085175,0.050367891788482666,0.007588683161884546,0.30609849095344543,0.8268358707427979,-2.89203143119812,19.426477432250977,3.1361775398254395,17.623424530029297,49239.0,50883.0,49502.0,48852.0,0.6,0.0,0.5,-0.34131667017936707,0.5266093611717224,0.008346322923898697,-0.012212276458740234,0.0006419105920940638,0.05739254131913185,0.5209961533546448,5.0855937004089355,0.2708211839199066,-17.184406280517578,-64.1555404663086,-7.729538440704346,42931.0,55135.0,55019.0,44108.0,-0.3000025448675481,0.51961377298239,0.5,-0.34058600664138794,-0.5822589993476868,0.007669296581298113,-0.006797805894166231,0.004078836180269718,0.014756138436496258,0.060451485216617584,0.11477915942668915,2.1189074516296387,0.5219656229019165,-21.881513595581055,6.603696346282959,53053.0,53171.0,53390.0,47987.0,-0.29999491024331576,-0.5196181808098181,0.5
0.659,TAKEOFF,incipient,1.0,0.591825008392334,0.01994571089744568,6.770812615286559e-05,-0.01566131040453911,0.04484002664685249,0.0054780649952590466,0.7749938368797302,0.7762182950973511,-2.5557737350463867,24.951772689819336,-5.726176738739014,20.95545768737793,49653.0,52868.0,50302.0,46244.0,0.6,0.0,0.5,-0.34131667017936707,0.5266093611717224,0.008346322923898697,-0.029501572251319885,-0.0014560886193066835,0.06782251596450806,0.3003738820552826,6.301693916320801,0.06975153833627701,-9.30957317352295,-49.83967971801758,-7.80000638961792,44804.0,55797.0,53861.0,43778.0,-0.3000025448675481,0.51961377298239,0.5,-0.34058600664138794,-0.5822589993476868,0.007669296581298113,-0.00761071452870965,0.003740710439160466,0.019894791767001152,0.07454962283372879,0.579149603843689,2.2206616401672363,-9.159687042236328,-29.663877487182617,5.4407877922058105,50808.0,52819.0,56089.0,49876.0,-0.29999491024331576,-0.5196181808098181,0.5
0.679,TAKEOFF,incipient,1.0,0.591825008392334,0.01994571089744568,6.770812615286559e-05,-0.014944120310246944,0.04973753169178963,0.016498470678925514,1.2450156211853027,0.8820282816886902,-2.073201894760132,29.802961349487305,-15.232405662536621,20.833791732788086,50743.0,53359.0,51475.0,44899.0,0.6,0.0,0.5,-0.34131667017936707,0.5266093611717224,0.008346322923898697,-0.050813939422369,-0.004792841617017984,0.07234466075897217,0.24059158563613892,7.122605323791504,-0.101612888276577,3.502293586730957,-33.67904281616211,-2.083951234817505,46463.0,54622.0,53033.0,46013.0,-0.3000025448675481,0.51961377298239,0.5,-0.34058600664138794,-0.5822589993476868,0.007669296581298113,-0.008406535722315311,0.0018755802884697914,0.019230585545301437,-0.1336091160774231,1.1393049955368042,2.3175673484802246,-14.230780601501465,-19.409202575683594,1.6532455682754517,50932.0,52915.0,56495.0,50724.0,-0.29999491024331576,-0.5196181808098181,0.5
0.699,TAKEOFF,incipient,1.0,0.591825008392334,0.01994571089744568,6.770812615286559e-05,-0.024417689070105553,0.04703103378415108,0.028297213837504387,1.8119581937789917,1.2256619930267334,-1.604030728340149,20.947608947753906,-22.181270599365234,18.085264205932617,48662.0,54484.0,52863.0,44499.0,0.6,0.0,0.5,-0.34131667017936707,0.5266093611717224,0.008346322923898697,-0.07867404073476791,-0.0010479242773726583,0.08175807446241379,0.3878500759601593,7.685330867767334,-0.09512882679700851,14.959599494934082,-9.951813697814941,1.0563277006149292,48859.0,56578.0,52449.0,43518.0,-0.3000025448675481,0.51961377298239,0.5,-0.3394424021244049,-0.5801407694816589,0.007792830001562834,-0.01106041856110096,0.004250609781593084,0.030887627974152565,-0.37344077229499817,1.4578698873519897,2.3533709049224854,-2.852058172225952,12.749971389770508,0.3785783648490906,53485.0,53218.0,54733.0,51628.0,-0.29999491024331576,-0.5196181808098181,0.5
0.719,TAKEOFF,incipient,1.0,0.591825008392334,0.01994571089744568,6.770812615286559e-05,-0.028811965137720108,0.04098471254110336,0.040512342005968094,2.1442761421203613,1.7209632396697998,-1.2457460165023804,11.842991828918457,-27.035022735595703,19.026899337768555,50452.0,52605.0,52617.0,46476.0,0.6,0.0,0.5,-0.3462611734867096,0.5271140933036804,0.014828799292445183,-0.10620332509279251,-0.0005851012538187206,0.09430316090583801,0.615503191947937,7.5890398025512695,-0.05714627355337143,8.46466064453125,33.56355667114258,2.2713077068328857,50680.0,53427.0,51381.0,47778.0,-0.3000025448675481,0.51961377298239,0.5,-0.3394424021244049,-0.5801407694816589,0.007792830001562834,-0.016328705474734306,0.005483661312609911,0.045357637107372284,-0.4363527297973633,1.288228154182434,2.3570966720581055,-6.294073581695557,5.283015251159668,-5.102905750274658,53076.0,51936.0,54575.0,54048.0,-0.29999491024331576,-0.5196181808098181,0.5
0.739,TAKEOFF,incipient,1.0,0.591825008392334,0.01994571089744568,6.770812615286559e-05,-0.03777901828289032,0.041520487517118454,0.05186128243803978,2.2785134315490723,2.2169570922851562,-0.8315063714981079,5.64321231842041,-7.395946025848389,17.115196228027344,50301.0,51288.0,52270.0,49194.0,0.6,0.0,0.5,-0.3462611734867096,0.5271140933036804,0.014828799292445183,-0.13388001918792725,-0.0026170071214437485,0.10414277017116547,0.7492836713790894,6.736790180206299,0.02064712531864643,11.168889045715332,60.45338439941406,4.107662677764893,53036.0,51998.0,49380.0,49635.0,-0.3000025448675481,0.51961377298239,0.5,-0.3394424021244049,-0.5801407694816589,0.007792830001562834,-0.01413612999022007,0.005598112475126982,0.06597694754600525,-0.5829869508743286,1.0842150449752808,2.253483772277832,-14.017866134643555,24.707284927368164,-6.207190036773682,53496.0,49077.0,54313.0,56489.0,-0.29999491024331576,-0.5196181808098181,0.5
0.759,TAKEOFF,incipient,1.0,0.5871983170509338,0.02881532907485962,0.005421500653028488,-0.046614352613687515,0.038117825984954834,0.06405172497034073,2.3029990196228027,2.1495437622070312,-0.4653785824775696,-4.161764144897461,10.644841194152832,19.236114501953125,51182.0,51810.0,52097.0,48481.0,0.6,0.0,0.5,-0.3462611734867096,0.5271140933036804,0.014828799292445183,-0.15907934308052063,-0.005276554264128208,0.114433154463768,0.9381437301635742,5.426102638244629,0.13686908781528473,9.284988403320312,72.1273422241211,7.057444095611572,52826.0,50513.0,50546.0,50881.0,-0.3000025448675481,0.51961377298239,0.5,-0.3394424021244049,-0.5801407694816589,0.007792830001562834,-0.012599116191267967,0.0060873921029269695,0.08276482671499252,-0.902750551700592,0.5566195845603943,2.129699230194092,-18.712268829345703,28.128725051879883,-2.6710705757141113,55368.0,52481.0,52914.0,53368.0,-0.29999491024331576,-0.5196181808098181,0.5
0.779,TAKEOFF,incipient,1.0,0.5871983170509338,0.02881532907485962,0.005421500653028488,-0.05267234146595001,0.013958600349724293,0.07183048874139786,2.334122896194458,2.013190746307373,-0.10292337089776993,-7.820709705352783,25.49152183532715,19.518062591552734,50161.0,51846.0,53421.0,48680.0,0.6,0.0,0.5,-0.3462611734867096,0.5271140933036804,0.014828799292445183,-0.17980638146400452,-0.00859790202230215,0.12478943169116974,1.1117159128189087,4.012818336486816,0.2535693049430847,10.712306022644043,52.79766082763672,6.36960506439209,52826.0,50513.0,50546.0,50881.0,-0.3000025448675481,0.51961377298239,0.5,-0.3394424021244049,-0.5801407694816589,0.007792830001562834,-0.008622712455689907,0.007808080408722162,0.10236243903636932,-1.139145851135254,-0.005373005755245686,2.086094379425049,22.95049285888672,12.261846542358398,2.5575461387634277,56412.0,54520.0,52447.0,50598.0,-0.29999491024331576,-0.5196181808098181,0.5
0.799,TAKEOFF,incipient,1.0,0.5871983170509338,0.02881532907485962,0.005421500653028488,-0.05896027386188507,-0.0009139287285506725,0.08171091973781586,2.2086591720581055,1.5582282543182373,0.26234057545661926,-7.433009147644043,21.226425170898438,16.696874618530273,50161.0,51846.0,53421.0,48680.0,0.6,0.0,0.5,-0.3462611734867096,0.5271140933036804,0.014828799292445183,-0.17903876304626465,-0.013784803450107574,0.12970177829265594,1.321531057357788,3.053894281387329,0.325844407081604,-2.368513822555542,31.050838470458984,4.795322418212891,51459.0,54647.0,52790.0,47410.0,-0.3000025448675481,0.51961377298239,0.5,-0.3382836878299713,-0.5803017020225525,0.016140928491950035,-0.008405311033129692,0.011731387116014957,0.1213846206665039,-0.6903640627861023,-0.23456034064292908,2.1353399753570557,38.924461364746094,-8.506294250488281,4.585455417633057,55123.0,54005.0,53985.0,51291.0,-0.29999491024331576,-0.5196181808098181,0.5
0.819,TAKEOFF,incipient,1.0,0.5871983170509338,0.02881532907485962,0.005421500653028488,-0.05956177040934563,-0.010075637139379978,0.08201885968446732,2.0596165657043457,1.2220476865768433,0.6666610836982727,10.015925407409668,19.84586524963379,17.678936004638672,53002.0,53488.0,51314.0,47199.0,0.6,0.0,0.5,-0.35813140869140625,0.5263570547103882,0.024281108751893044,-0.18716590106487274,-0.019187958911061287,0.13685467839241028,1.321531057357788,3.053894281387329,0.325844407081604,-2.368513822555542,31.050838470458984,4.795322418212891,49504.0,54392.0,54656.0,48130.0,-0.3000025448675481,0.51961377298239,0.5,-0.3382836878299713,-0.5803017020225525,0.016140928491950035,-0.00770381698384881,0.013559311628341675,0.13824279606342316,-0.005784595850855112,-0.19874614477157593,2.187067747116089,14.392253875732422,-0.7179666757583618,3.0177578926086426,55123.0,54005.0,53985.0,51291.0,-0.29999491024331576,-0.5196181808098181,0.5
0.839,TAKEOFF,incipient,1.0,0.5871983170509338,0.02881532907485962,0.005421500653028488,-0.0704314187169075,-0.004036791622638702,0.09388694167137146,2.3204445838928223,0.8821635842323303,1.04246187210083,21.702104568481445,6.860967636108398,20.78990364074707,52523.0,53785.0,53236.0,46372.0,0.6,0.0,0.5,-0.35813140869140625,0.5263570547103882,0.024281108751893044,-0.19036465883255005,-0.028796862810850143,0.13922202587127686,0.8369293212890625,2.1281208992004395,0.5757886171340942,-12.381682395935059,15.912765502929688,7.119602680206299,50702.0,54514.0,54113.0,48135.0,-0.3000025448675481,0.51961377298239,0.5,-0.3382836878299713,-0.5803017020225525,0.016140928491950035,0.01580648124217987,0.008302649483084679,0.13752587139606476,0.27326446771621704,-0.2993871569633484,2.2556824684143066,-2.345384120941162,14.501452445983887,2.5134117603302,56760.0,51029.0,53097.0,55107.0,-0.29999491024331576,-0.5196181808098181,0.5
0.859,TAKEOFF,incipient,1.0,0.5796661376953125,0.025762302801012993,0.014429157599806786,-0.07370198518037796,-0.012222303077578545,0.10426739603281021,2.7319700717926025,0.6780567169189453,1.413764476776123,13.854732513427734,9.09941577911377,18.269672393798828,52523.0,53785.0,53236.0,46372.0,0.6,0.0,0.5,-0.35813140869140625,0.5263570547103882,0.024281108751893044,-0.1990995556116104,-0.03208057954907417,0.148360937833786,0.6069487929344177,1.769266963005066,0.7114588022232056,-8.607780456542969,22.030872344970703,5.447209358215332,51360.0,54511.0,53942.0,48335.0,-0.3000025448675481,0.51961377298239,0.5,-0.3382836878299713,-0.5803017020225525,0.016140928491950035,0.02927827276289463,0.004380254074931145,0.15117768943309784,0.2675853967666626,-0.7077466249465942,2.335960626602173,-1.6532471179962158,8.979626655578613,2.287482261657715,56760.0,51029.0,53097.0,55107.0,-0.29999491024331576,-0.5196181808098181,0.5
0.879,TAKEOFF,incipient,1.0,0.5796661376953125,0.025762302801012993,0.014429157599806786,-0.08405625820159912,-0.027994759380817413,0.12200526893138885,2.971940755844116,0.6025527715682983,1.8301928043365479,5.77455997467041,16.827089309692383,17.86041259765625,53673.0,53117.0,52276.0,47463.0,0.6,0.0,0.5,-0.35813140869140625,0.5263570547103882,0.024281108751893044,-0.20737500488758087,-0.0334685742855072,0.1595010757446289,0.4650937020778656,1.257831335067749,0.8106817007064819,-6.6745381355285645,36.51666259765625,5.651852607727051,52298.0,52332.0,53460.0,51169.0,-0.3000025448675481,0.51961377298239,0.5,-0.3382836878299713,-0.5803017020225525,0.016140928491950035,0.027618689462542534,0.009779879823327065,0.16547539830207825,0.1797102838754654,-0.8019672632217407,2.391453981399536,-0.6756091713905334,-15.838658332824707,3.2828733921051025,54481.0,54582.0,55990.0,51918.0,-0.29999491024331576,-0.5196181808098181,0.5
0.899,TAKEOFF,incipient,1.0,0.5796661376953125,0.025762302801012993,0.014429157599806786,-0.08612655848264694,-0.03867681324481964,0.1332896649837494,3.006215810775757,0.05148131027817726,2.18652081489563,-8.819365501403809,32.758358001708984,19.548770904541016,52595.0,49903.0,54528.0,50579.0,0.6,0.0,0.5,-0.35813140869140625,0.5263570547103882,0.024281108751893044,-0.2151976376771927,-0.03443693369626999,0.17163971066474915,0.2657865583896637,0.47882479429244995,0.9272400736808777,-13.82373332977295,41.85884094238281,5.543917179107666,52298.0,52332.0,53460.0,51169.0,-0.3000025448675481,0.51961377298239,0.5,-0.32952114939689636,-0.579795241355896,0.026379350572824478,0.030358348041772842,0.009236612357199192,0.1832546442747116,0.16946400701999664,-0.48436346650123596,2.4455244541168213,-0.9540214538574219,-21.419063568115234,2.644955635070801,54481.0,54582.0,55990.0,51918.0,-0.29999491024331576,-0.5196181808098181,0.5
0.919,TAKEOFF,incipient,1.0,0.5796661376953125,0.025762302801012993,0.014429157599806786,-0.07135167717933655,-0.05402645841240883,0.14615792036056519,2.7119719982147217,-0.5883135199546814,2.5732765197753906,-32.47972869873047,23.97743034362793,21.056076049804688,51250.0,50243.0,56192.0,50089.0,0.6,0.0,0.5,-0.3726890981197357,0.520063042640686,0.038793016225099564,-0.2178058922290802,-0.03517474979162216,0.18557952344417572,-0.0009916964918375015,-0.4274248480796814,1.0220335721969604,-9.414216041564941,53.40311813354492,7.816688537597656,52468.0,52218.0,53673.0,51346.0,-0.3000025448675481,0.51961377298239,0.5,-0.32952114939689636,-0.579795241355896,0.026379350572824478,0.03172275051474571,0.008676133118569851,0.20027945935726166,0.1537466198205948,-0.051666658371686935,2.501427412033081,-5.722328186035156,-24.284189224243164,4.474212646484375,53544.0,54078.0,57283.0,52328.0,-0.29999491024331576,-0.5196181808098181,0.5
0.939,TAKEOFF,incipient,1.0,0.5796661376953125,0.025762302801012993,0.014429157599806786,-0.07766985893249512,-0.07448352873325348,0.1580587923526764,2.0088419914245605,-0.8756000995635986,3.0216853618621826,-50.58485412597656,13.815067291259766,20.673309326171875,51250.0,50243.0,56192.0,50089.0,0.6,0.0,0.5,-0.3726890981197357,0.520063042640686,0.038793016225099564,-0.22121837735176086,-0.028790481388568878,0.19907182455062866,-0.23670944571495056,-1.3554514646530151,1.2107951641082764,-7.414885520935059,38.4184455871582,8.792411804199219,52337.0,53953.0,54176.0,49272.0,-0.3000025448675481,0.51961377298239,0.5,-0.32952114939689636,-0.579795241355896,0.026379350572824478,0.03142333775758743,0.008224335499107838,0.21672208607196808,0.004563726019114256,0.44568055868148804,2.589165449142456,-8.584321022033691,-26.54653549194336,6.001907825469971,54387.0,52917.0,56901.0,53336.0,-0.29999491024331576,-0.5196181808098181,0.5
0.959,TAKEOFF,incipient,1.0,0.5664302706718445,0.017662029713392258,0.029749372974038124,-0.07431090623140335,-0.08230546861886978,0.16995082795619965,0.9907690286636353,-1.1405365467071533,3.462719202041626,-46.88373565673828,10.03089714050293,21.55082893371582,52248.0,49527.0,55746.0,50771.0,0.6,0.0,0.5,-0.3726890981197357,0.520063042640686,0.038793016225099564,-0.2039417028427124,-0.03616254776716232,0.20327846705913544,-0.2979164123535156,-2.165083646774292,1.4016772508621216,-2.120537042617798,30.87598991394043,10.244029998779297,52484.0,52983.0,54683.0,50577.0,-0.3000025448675481,0.51961377298239,0.5,-0.32952114939689636,-0.579795241355896,0.026379350572824478,0.029210101813077927,0.008290402591228485,0.2327665388584137,-0.19805553555488586,0.9172642827033997,2.709500789642334,-8.432519912719727,-6.950769901275635,5.424160003662109,54523.0,51487.0,56938.0,54668.0,-0.29999491024331576,-0.5196181808098181,0.5
0.979,TAKEOFF,incipient,1.0,0.5664302706718445,0.017662029713392258,0.029749372974038124,-0.07964809983968735,-0.08360901474952698,0.19116245210170746,0.07347198575735092,-1.3547741174697876,3.863508701324463,-41.17666244506836,6.337718963623047,19.813291549682617,53092.0,50983.0,55300.0,49441.0,0.6,0.0,0.5,-0.3726890981197357,0.520063042640686,0.038793016225099564,-0.20625169575214386,-0.02745937742292881,0.22242045402526855,-0.27230456471443176,-2.6387932300567627,1.6231164932250977,8.696552276611328,21.76030158996582,9.61808967590332,53862.0,53539.0,53808.0,49622.0,-0.3000025448675481,0.51961377298239,0.5,-0.32952114939689636,-0.579795241355896,0.026379350572824478,0.025610722601413727,0.00904756784439087,0.24629557132720947,-0.4028349220752716,1.05463707447052,2.8239245414733887,-8.75559139251709,6.427736282348633,4.573686122894287,55843.0,51283.0,55795.0,55005.0,-0.29999491024331576,-0.5196181808098181,0.5
0.999,TAKEOFF,incipient,1.0,0.5664302706718445,0.017662029713392258,0.029749372974038124,-0.0644073635339737,-0.08858418464660645,0.19988635182380676,-0.6653837561607361,-1.4951719045639038,4.243623733520508,-26.755285263061523,5.330771446228027,16.908193588256836,53092.0,50983.0,55300.0,49441.0,0.6,0.0,0.5,-0.3726890981197357,0.520063042640686,0.038793016225099564,-0.1972116231918335,-0.0260833241045475,0.23201186954975128,-0.10167179256677628,-3.0791234970092773,1.8280407190322876,14.770870208740234,17.751413345336914,10.460428237915039,53862.0,53539.0,53808.0,49622.0,-0.3000025448675481,0.51961377298239,0.5,-0.3265618085861206,-0.5789235830307007,0.047963641583919525,0.06599056720733643,-0.027549684047698975,0.26319655776023865,-0.2865106463432312,0.5706614851951599,2.923757553100586,-6.970200061798096,10.497658729553223,6.421665668487549,57560.0,52288.0,54147.0,53853.0,-0.29999491024331576,-0.5196181808098181,0.5
1.019,TAKEOFF,incipient,1.0,0.5664302706718445,0.017662029713392258,0.029749372974038124,-0.05571667477488518,-0.08308326452970505,0.20735111832618713,-1.0801531076431274,-1.614319920539856,4.522308349609375,-2.7168405055999756,2.4580299854278564,16.54501724243164,53686.0,52747.0,54867.0,47542.0,0.6,0.0,0.5,-0.3922538161277771,0.5186485052108765,0.06119983270764351,-0.1852884292602539,-0.022161850705742836,0.24740567803382874,0.22941558063030243,-3.442195415496826,2.090343952178955,21.3856258392334,22.55440330505371,11.374296188354492,55022.0,54440.0,53197.0,48300.0,-0.3000025448675481,0.51961377298239,0.5,-0.3265618085861206,-0.5789235830307007,0.047963641583919525,0.06404076516628265,-0.026445910334587097,0.27694329619407654,-0.4185718297958374,0.42015135288238525,3.007946252822876,2.9116923809051514,3.4449634552001953,7.3539509773254395,57560.0,52288.0,54147.0,53853.0,-0.29999491024331576,-0.5196181808098181,0.5
1.039,TAKEOFF,incipient,1.0,0.5664302706718445,0.017662029713392258,0.029749372974038124,-0.05014634504914284,-0.07888190448284149,0.22232787311077118,-1.3123360872268677,-1.6917002201080322,4.863004684448242,4.550723075866699,8.309869766235352,15.569116592407227,54125.0,52501.0,54883.0,47771.0,0.6,0.0,0.5,-0.3922538161277771,0.5186485052108765,0.06119983270764351,-0.17324385046958923,-0.022202376276254654,0.2558259963989258,0.6394416689872742,-3.903134346008301,2.329519748687744,22.654130935668945,21.025556564331055,10.939058303833008,56605.0,52476.0,51948.0,50472.0,-0.3000025448675481,0.51961377298239,0.5,-0.3265618085861206,-0.5789235830307007,0.047963641583919525,0.04071580246090889,-0.00660420348867774,0.2924327850341797,-0.48194611072540283,0.518724262714386,3.1716365814208984,2.023898124694824,-6.086181163787842,7.945870876312256,56709.0,53277.0,55045.0,52224.0,-0.29999491024331576,-0.5196181808098181,0.5
1.059,TAKEOFF,incipient,1.0,0.5575780868530273,0.011949548497796059,0.05226746201515198,-0.06354352086782455,-0.05766639485955238,0.24224327504634857,-1.1480361223220825,-1.7677490711212158,5.166025161743164,5.5616960525512695,12.158671379089355,13.319239616394043,54835.0,52044.0,54361.0,48680.0,0.6,0.0,0.5,-0.3922538161277771,0.5186485052108765,0.06119983270764351,-0.1595371961593628,-0.02360801212489605,0.2648308277130127,1.0158485174179077,-4.489527702331543,2.5895309448242188,12.09948444366455,29.85211181640625,11.721282958984375,56605.0,52476.0,51948.0,50472.0,-0.3000025448675481,0.51961377298239,0.5,-0.3265618085861206,-0.5789235830307007,0.047963641583919525,0.04415401816368103,-0.008357387967407703,0.3042548894882202,-0.4288209080696106,0.5775888562202454,3.3256759643554688,-1.0695559978485107,-5.8639750480651855,7.747889995574951,56445.0,51601.0,55952.0,54175.0,-0.29999491024331576,-0.5196181808098181,0.5
1.079,TAKEOFF,incipient,1.0,0.5575780868530273,0.011949548497796059,0.05226746201515198,-0.04625220224261284,-0.05592416226863861,0.24571631848812103,-0.9677887558937073,-2.1000726222991943,5.375982761383057,13.145282745361328,19.005826950073242,10.26686954498291,54835.0,52044.0,54361.0,48680.0,0.6,0.0,0.5,-0.3922538161277771,0.5186485052108765,0.06119983270764351,-0.08919521421194077,-0.056844450533390045,0.24407170712947845,1.4344297647476196,-5.3948540687561035,2.831820011138916,-4.5801100730896,21.003684997558594,9.928522109985352,56049.0,53320.0,53022.0,50035.0,-0.3000025448675481,0.51961377298239,0.5,-0.3265618085861206,-0.5789235830307007,0.047963641583919525,0.04188575968146324,-0.006941433530300856,0.31215304136276245,-0.4661324918270111,0.7074262499809265,3.4798882007598877,-3.3073744773864746,-8.826281547546387,4.753350257873535,56445.0,51601.0,55952.0,54175.0,-0.29999491024331576,-0.5196181808098181,0.5
1.099,TAKEOFF,incipient,1.0,0.5575780868530273,0.011949548497796059,0.05226746201515198,-0.03933993726968765,-0.05164704844355583,0.25406476855278015,-0.7058265209197998,-2.5405166149139404,5.555944442749023,7.7606072425842285,22.892105102539062,12.358426094055176,55241.0,51446.0,54694.0,49946.0,0.6,0.0,0.5,-0.3922538161277771,0.5186485052108765,0.06119983270764351,-0.06118990480899811,-0.06791141629219055,0.2471151053905487,1.2728267908096313,-5.840298652648926,3.023862838745117,-21.86598014831543,10.637140274047852,8.772538185119629,53753.0,53719.0,56318.0,50913.0,-0.3000025448675481,0.51961377298239,0.5,-0.3148643970489502,-0.5839526057243347,0.07814189046621323,0.04384853318333626,-0.008802850730717182,0.31921476125717163,-0.49860766530036926,0.8541414141654968,3.544485330581665,-3.116680145263672,-15.44874382019043,1.3558419942855835,56196.0,53525.0,55912.0,53343.0,-0.29999491024331576,-0.5196181808098181,0.5
1.119,TAKEOFF,incipient,1.0,0.5575780868530273,0.011949548497796059,0.05226746201515198,-0.027973568066954613,-0.04763277620077133,0.2559743821620941,-0.536523163318634,-2.9636268615722656,5.783237457275391,7.44270133972168,12.314470291137695,10.853276252746582,54828.0,51984.0,55429.0,49466.0,0.6,0.0,0.5,-0.3966645896434784,0.5100738406181335,0.08236359804868698,-0.0402664914727211,-0.07161466032266617,0.2557854950428009,0.744830846786499,-5.916916847229004,3.1687493324279785,-30.56290054321289,0.4671563506126404,7.082775115966797,53753.0,53719.0,56318.0,50913.0,-0.3000025448675481,0.51961377298239,0.5,-0.3148643970489502,-0.5839526057243347,0.07814189046621323,0.014734654687345028,0.021329443901777267,0.3182889223098755,-0.7687657475471497,1.3986870050430298,3.547621011734009,-1.1107048988342285,-10.827646255493164,-1.4203336238861084,56196.0,53525.0,55912.0,53343.0,-0.29999491024331576,-0.5196181808098181,0.5
1.14,TAKEOFF,incipient,1.0,0.5575780868530273,0.011949548497796059,0.05226746201515198,-0.03377947956323624,-0.01663479581475258,0.26935750246047974,-0.6548269391059875,-3.0590357780456543,6.061262130737305,-2.9547510147094727,2.338689088821411,9.37409782409668,54170.0,51530.0,56253.0,50014.0,0.6,0.0,0.5,-0.3966645896434784,0.5100738406181335,0.08236359804868698,-0.024791641160845757,-0.06742675602436066,0.2741791307926178,0.11086524277925491,-5.739625930786133,3.321134328842163,-28.349205017089844,-16.904949188232422,6.039484977722168,54669.0,55022.0,55730.0,50109.0,-0.3000025448675481,0.51961377298239,0.5,-0.3148643970489502,-0.5839526057243347,0.07814189046621323,0.012019186280667782,0.013809028081595898,0.33211052417755127,-0.7658020257949829,1.520240306854248,3.5204830169677734,-1.219908356666565,-7.471866607666016,-4.675713539123535,55532.0,53849.0,56591.0,54040.0,-0.29999491024331576,-0.5196181808098181,0.5
1.159,TAKEOFF,incipient,1.0,0.5558717846870422,0.011136317625641823,0.07858847826719284,-0.023506363853812218,-0.013185728341341019,0.27323269844055176,-0.7242653369903564,-3.056248426437378,6.251004219055176,-6.575091361999512,-6.894599914550781,8.30841064453125,53939.0,52451.0,56801.0,49097.0,0.6,0.0,0.5,-0.3966645896434784,0.5100738406181335,0.08236359804868698,-0.003515245858579874,-0.06706980615854263,0.28768640756607056,-0.40964990854263306,-5.2799882888793945,3.392983913421631,-18.84662437438965,-26.693737030029297,3.9591798782348633,52902.0,54694.0,57030.0,50413.0,-0.3000025448675481,0.51961377298239,0.5,-0.3148643970489502,-0.5839526057243347,0.07814189046621323,-0.004113622009754181,0.0272896196693182,0.33092591166496277,-0.908106803894043,1.736144781112671,3.437967300415039,1.4853506088256836,-7.488584041595459,-5.928963661193848,55310.0,54059.0,56942.0,54524.0,-0.29999491024331576,-0.5196181808098181,0.5
1.179,TAKEOFF,incipient,1.0,0.5558717846870422,0.011136317625641823,0.07858847826719284,-0.022083047777414322,0.00038449172279797494,0.27951472997665405,-0.9059547185897827,-2.808065414428711,6.495304107666016,-3.8412468433380127,-10.751633644104004,9.760785102844238,53939.0,52451.0,56801.0,49097.0,0.6,0.0,0.5,-0.3966645896434784,0.5100738406181335,0.08236359804868698,0.022923920303583145,-0.06918222457170486,0.29702702164649963,-0.7443087697029114,-4.729996204376221,3.463132381439209,-15.431825637817383,-33.96551513671875,2.993277072906494,54457.0,54013.0,56095.0,51169.0,-0.3000025448675481,0.51961377298239,0.5,-0.3148643970489502,-0.5839526057243347,0.07814189046621323,-0.010488156229257584,0.030097706243395805,0.3354201316833496,-0.8894521594047546,1.8662914037704468,3.3241374492645264,2.4577443599700928,-5.513332843780518,-6.104498863220215,55337.0,54411.0,57059.0,54510.0,-0.29999491024331576,-0.5196181808098181,0.5
1.199,TAKEOFF,incipient,1.0,0.5558717846870422,0.011136317625641823,0.07858847826719284,-0.012274771928787231,0.004698869306594133,0.28808584809303284,-0.8379002213478088,-2.7304329872131348,6.635515213012695,2.2086849212646484,-13.88758659362793,8.845393180847168,53903.0,52531.0,57170.0,49050.0,0.6,0.0,0.5,-0.3966645896434784,0.5100738406181335,0.08236359804868698,0.0387386791408062,-0.06554882228374481,0.3151865303516388,-1.0407710075378418,-4.149033069610596,3.5129923820495605,-8.853265762329102,-24.955102920532227,0.7186101675033569,54457.0,54013.0,56095.0,51169.0,-0.3000025448675481,0.51961377298239,0.5,-0.3190394639968872,-0.5788266062736511,0.10994970798492432,-0.017404083162546158,0.032817915081977844,0.3424033522605896,-0.8320019245147705,1.9784009456634521,3.2054061889648438,5.649893283843994,2.901515245437622,-6.4944987297058105,56524.0,54627.0,55912.0,54590.0,-0.29999491024331576,-0.5196181808098181,0.5
1.219,TAKEOFF,incipient,1.0,0.5558717846870422,0.011136317625641823,0.07858847826719284,0.02002732828259468,-0.0008764954400248826,0.3039165437221527,-0.7104160189628601,-2.5196726322174072,6.754342079162598,8.320513725280762,-14.82758903503418,8.715262413024902,55213.0,54238.0,56575.0,47619.0,0.6,0.0,0.5,-0.3967558443546295,0.5047826766967773,0.11218824237585068,0.05277693271636963,-0.06064259260892868,0.3327745795249939,-1.2056044340133667,-3.6804468631744385,3.510098457336426,-2.7838797569274902,-19.649158477783203,-0.4660273790359497,54421.0,53863.0,55906.0,51431.0,-0.3000025448675481,0.51961377298239,0.5,-0.3190394639968872,-0.5788266062736511,0.10994970798492432,-0.02460285648703575,0.03528300300240517,0.350078284740448,-0.6206769347190857,1.939464807510376,3.056454658508301,11.272026062011719,12.194416999816895,-6.416263103485107,57249.0,54381.0,55457.0,55258.0,-0.29999491024331576,-0.5196181808098181,0.5
1.24,TAKEOFF,incipient,1.0,0.5558717846870422,0.011136317625641823,0.07858847826719284,0.010854635387659073,-0.03455184027552605,0.30572330951690674,-0.30548274517059326,-2.0230050086975098,6.9402756690979,12.106683731079102,-17.116579055786133,7.186777591705322,55213.0,54238.0,56575.0,47619.0,0.6,0.0,0.5,-0.3967558443546295,0.5047826766967773,0.11218824237585068,0.065181665122509,-0.054847996681928635,0.3499729037284851,-1.2620058059692383,-3.312095880508423,3.4889395236968994,-0.8529868125915527,-16.134010314941406,-0.747660219669342,54882.0,54364.0,55116.0,50926.0,-0.3000025448675481,0.51961377298239,0.5,-0.3190394639968872,-0.5788266062736511,0.10994970798492432,-0.03242196515202522,0.0267577413469553,0.34979501366615295,-0.3918740153312683,1.6700721979141235,2.885024309158325,13.00849723815918,19.348163604736328,-6.448773384094238,57789.0,54559.0,55035.0,55549.0,-0.29999491024331576,-0.5196181808098181,0.5
1.259,TAKEOFF,incipient,1.0,0.554856538772583,0.001980530796572566,0.10900135338306427,0.014177778735756874,-0.034321241080760956,0.31594118475914,-0.036327946931123734,-1.643470048904419,7.024669647216797,5.558804512023926,-18.483417510986328,7.274792194366455,54761.0,53215.0,56726.0,48210.0,0.6,0.0,0.5,-0.3967558443546295,0.5047826766967773,0.11218824237585068,0.07737942039966583,-0.049467168748378754,0.3652394115924835,-1.2908066511154175,-3.041499614715576,3.4794716835021973,-4.237905025482178,-11.622000694274902,-1.8917236328125,54882.0,54364.0,55116.0,50926.0,-0.3000025448675481,0.51961377298239,0.5,-0.3190394639968872,-0.5788266062736511,0.10994970798492432,-0.03654271364212036,0.024659790098667145,0.35225194692611694,-0.1539529711008072,1.2713418006896973,2.752406358718872,8.462130546569824,18.72848129272461,-5.998337268829346,57154.0,54862.0,55581.0,55001.0,-0.29999491024331576,-0.5196181808098181,0.5
1.279,TAKEOFF,incipient,1.0,0.554856538772583,0.001980530796572566,0.10900135338306427,0.022490866482257843,-0.028046460822224617,0.3299418091773987,-0.07266680151224136,-1.2750123739242554,7.235728740692139,-3.2668418884277344,-11.363927841186523,6.484138011932373,54491.0,52150.0,56792.0,49151.0,0.6,0.0,0.5,-0.3967558443546295,0.5047826766967773,0.11218824237585068,0.07832591235637665,-0.027271827682852745,0.3754943609237671,-1.5214873552322388,-2.765707492828369,3.48555588722229,-5.615274906158447,-9.30289077758789,-2.9954452514648438,53995.0,54741.0,55138.0,49998.0,-0.3000025448675481,0.51961377298239,0.5,-0.3190394639968872,-0.5788266062736511,0.10994970798492432,-0.040726177394390106,0.024814164265990257,0.3613634705543518,0.028247250244021416,0.8957244157791138,2.634666681289673,5.437081813812256,13.54175853729248,-6.086125373840332,57154.0,54862.0,55581.0,55001.0,-0.29999491024331576,-0.5196181808098181,0.5
1.299,TAKEOFF,incipient,1.0,0.554856538772583,0.001980530796572566,0.10900135338306427,0.027181554585695267,-0.027186548337340355,0.33595141768455505,-0.17807038128376007,-1.1065521240234375,7.360116481781006,-10.127320289611816,-0.5668396949768066,6.118139266967773,54781.0,51601.0,56327.0,49572.0,0.6,0.0,0.5,-0.3967558443546295,0.5047826766967773,0.11218824237585068,0.08834109455347061,-0.021129541099071503,0.39055517315864563,-1.5786771774291992,-2.6767616271972656,3.4246294498443604,-4.075841426849365,-8.741852760314941,-2.9007627964019775,53995.0,54741.0,55138.0,49998.0,-0.3000025448675481,0.51961377298239,0.5,-0.31648895144462585,-0.5822731256484985,0.1459767073392868,-0.005319925025105476,0.004622630774974823,0.381996214389801,0.2926347553730011,0.3355170786380768,2.505300760269165,2.583270311355591,4.136031627655029,-6.144854545593262,56335.0,54554.0,56070.0,55065.0,-0.29999491024331576,-0.5196181808098181,0.5
1.319,TAKEOFF,incipient,1.0,0.554856538772583,0.001980530796572566,0.10900135338306427,0.031105399131774902,-0.026158561930060387,0.34303590655326843,-0.3940427303314209,-1.144700288772583,7.471608638763428,-13.864265441894531,6.725443363189697,4.458791255950928,54530.0,50663.0,56382.0,50230.0,0.6,0.0,0.5,-0.39050209522247314,0.5041015148162842,0.14679168164730072,0.1099965050816536,-0.021050680428743362,0.39293909072875977,-1.6514889001846313,-2.4961752891540527,3.373067855834961,-2.422884941101074,-11.166566848754883,-2.165970802307129,53612.0,53818.0,54999.0,50661.0,-0.3000025448675481,0.51961377298239,0.5,-0.31648895144462585,-0.5822731256484985,0.1459767073392868,0.00043114376603625715,0.0022325897589325905,0.392189085483551,0.3542497754096985,0.1579812616109848,2.3825201988220215,-1.8536086082458496,-1.367334008216858,-6.0508341789245605,55880.0,53765.0,55162.0,54912.0,-0.29999491024331576,-0.5196181808098181,0.5
1.34,TAKEOFF,incipient,1.0,0.554856538772583,0.001980530796572566,0.10900135338306427,0.029580477625131607,-0.013985871337354183,0.3567567467689514,-0.7371699810028076,-1.2457606792449951,7.6303300857543945,-10.240291595458984,7.578300476074219,3.9229421615600586,54012.0,51868.0,56627.0,48260.0,0.6,0.0,0.5,-0.39050209522247314,0.5041015148162842,0.14679168164730072,0.11887869983911514,-0.014546660706400871,0.4054916799068451,-1.6831848621368408,-2.237017869949341,3.330369472503662,1.8936750888824463,-12.561306953430176,-3.322719097137451,53908.0,53366.0,54150.0,50490.0,-0.3000025448675481,0.51961377298239,0.5,-0.31648895144462585,-0.5822731256484985,0.1459767073392868,0.0020425713155418634,0.00046619473141618073,0.39818552136421204,0.30893972516059875,0.18358534574508667,2.235401153564453,-4.695199012756348,-8.55710220336914,-6.92111873626709,55235.0,53973.0,55180.0,54399.0,-0.29999491024331576,-0.5196181808098181,0.5
1.359,TAKEOFF,incipient,1.0,0.555751621723175,0.004536509048193693,0.14496709406375885,0.03375828266143799,-0.010833370499312878,0.3654018044471741,-0.906115710735321,-1.3616628646850586,7.715404510498047,-6.316076755523682,2.171682357788086,3.4843947887420654,53868.0,52020.0,56534.0,47696.0,0.6,0.0,0.5,-0.39050209522247314,0.5041015148162842,0.14679168164730072,0.09476807713508606,0.009558230638504028,0.42547816038131714,-1.789777398109436,-1.6902743577957153,3.3253180980682373,5.436339378356934,-22.561805725097656,-3.57920241355896,51461.0,53658.0,55812.0,49272.0,-0.3000025448675481,0.51961377298239,0.5,-0.31648895144462585,-0.5822731256484985,0.1459767073392868,-0.013559157960116863,0.011892520822584629,0.39676719903945923,0.12480448931455612,0.4659542441368103,2.0964112281799316,-3.3333258628845215,-15.289369583129883,-6.3911590576171875,54395.0,54851.0,55999.0,53695.0,-0.29999491024331576,-0.5196181808098181,0.5
1.379,TAKEOFF,incipient,1.0,0.555751621723175,0.004536509048193693,0.14496709406375885,0.038065530359745026,-0.007103949785232544,0.3729095757007599,-0.9777787923812866,-1.3330349922180176,7.788995265960693,-0.24332456290721893,-5.8868865966796875,2.778596878051758,53651.0,52549.0,56552.0,46679.0,0.6,0.0,0.5,-0.39050209522247314,0.5041015148162842,0.14679168164730072,0.10079842060804367,0.01647353358566761,0.43747836351394653,-1.7455543279647827,-1.2442657947540283,3.273434638977051,3.1563470363616943,-21.36094093322754,-4.756898403167725,51461.0,53658.0,55812.0,49272.0,-0.3000025448675481,0.51961377298239,0.5,-0.31648895144462585,-0.5822731256484985,0.1459767073392868,-0.015580722130835056,0.011437490582466125,0.4042171239852905,0.045666247606277466,0.7792750597000122,1.9516404867172241,-2.1148183345794678,-13.895914077758789,-6.512359142303467,54412.0,54581.0,55908.0,53757.0,-0.29999491024331576,-0.5196181808098181,0.5
1.399,TAKEOFF,incipient,1.0,0.555751621723175,0.004536509048193693,0.14496709406375885,0.04231094941496849,-0.0030865641310811043,0.3779010772705078,-0.9461721777915955,-1.209492564201355,7.861059665679932,4.608500957489014,-5.9675703048706055,2.69571590423584,54316.0,51774.0,55735.0,47386.0,0.6,0.0,0.5,-0.39050209522247314,0.5041015148162842,0.14679168164730072,0.10526899248361588,0.023062540218234062,0.44789230823516846,-1.6342620849609375,-0.8266043663024902,3.2013113498687744,6.320796489715576,-17.162769317626953,-4.483697891235352,52988.0,53078.0,53283.0,49085.0,-0.3000025448675481,0.51961377298239,0.5,-0.3185824751853943,-0.5785196423530579,0.184646874666214,-0.018615351989865303,0.01123492605984211,0.41157153248786926,-0.006728347856551409,1.0529040098190308,1.8293546438217163,0.6726122498512268,-9.162820816040039,-5.089719295501709,55053.0,54031.0,54937.0,53861.0,-0.29999491024331576,-0.5196181808098181,0.5
1.419,TAKEOFF,incipient,1.0,0.555751621723175,0.004536509048193693,0.14496709406375885,0.046145763248205185,0.0008445354760624468,0.3819234073162079,-0.834126353263855,-1.0982991456985474,7.915352821350098,8.246354103088379,-5.757014751434326,2.416151285171509,54388.0,51582.0,55481.0,47276.0,0.6,0.0,0.5,-0.383589506149292,0.5065736174583435,0.19014768302440643,0.10821956396102905,0.029164660722017288,0.45521649718284607,-1.4781590700149536,-0.5273093581199646,3.1117546558380127,5.9657158851623535,-9.82624340057373,-3.845588207244873,52536.0,54175.0,53222.0,47217.0,-0.3000025448675481,0.51961377298239,0.5,-0.3185824751853943,-0.5785196423530579,0.184646874666214,-0.04305782914161682,0.03074265457689762,0.40737366676330566,-0.15327522158622742,1.3776683807373047,1.7518037557601929,2.1859352588653564,0.47109392285346985,-4.145946502685547,54790.0,53709.0,55157.0,54064.0,-0.29999491024331576,-0.5196181808098181,0.5
1.439,TAKEOFF,incipient,1.0,0.555751621723175,0.004536509048193693,0.14496709406375885,0.052854977548122406,0.007317083887755871,0.39006853103637695,-0.6584104299545288,-1.0232852697372437,7.96018648147583,8.829564094543457,-2.983151912689209,1.7357500791549683,54231.0,51338.0,55316.0,47426.0,0.6,0.0,0.5,-0.383589506149292,0.5065736174583435,0.19014768302440643,0.09901217371225357,0.04102948307991028,0.46287885308265686,-1.3650119304656982,-0.2140297144651413,3.0822227001190186,6.558688640594482,-7.1274213790893555,-3.1246089935302734,52152.0,52942.0,52578.0,48870.0,-0.3000025448675481,0.51961377298239,0.5,-0.3185824751853943,-0.5785196423530579,0.184646874666214,-0.0479569211602211,0.031105466187000275,0.4137912690639496,-0.09293030947446823,1.3535258769989014,1.669992446899414,4.931272983551025,4.9024577140808105,-4.734002590179443,54790.0,53709.0,55157.0,54064.0,-0.29999491024331576,-0.5196181808098181,0.5
1.459,TAKEOFF,incipient,1.0,0.5603300929069519,0.004581865854561329,0.18314197659492493,0.052854977548122406,0.007317083887755871,0.39006853103637695,-0.49877217411994934,-0.966266930103302,7.987617015838623,9.654102325439453,-6.577460765838623,1.4373666048049927,53870.0,50781.0,55449.0,47725.0,0.6,0.0,0.5,-0.383589506149292,0.5065736174583435,0.19014768302440643,0.12183915823698044,0.03536743298172951,0.45505398511886597,-1.122850775718689,-0.24665284156799316,2.9281129837036133,11.920367240905762,-6.706531047821045,-4.505956172943115,52434.0,52484.0,52712.0,48853.0,-0.3000025448675481,0.51961377298239,0.5,-0.3185824751853943,-0.5785196423530579,0.184646874666214,-0.02971828728914261,0.013694305904209614,0.42041242122650146,0.15471597015857697,1.0792934894561768,1.5894978046417236,6.296358585357666,10.878939628601074,-4.225841522216797,54691.0,53490.0,54380.0,53471.0,-0.29999491024331576,-0.5196181808098181,0.5
1.479,TAKEOFF,incipient,1.0,0.5603300929069519,0.004581865854561329,0.18314197659492493,0.05596638470888138,0.009636159986257553,0.39331066608428955,-0.37480875849723816,-0.8747395873069763,8.005692481994629,0.3969947099685669,-2.659097194671631,0.1447959840297699,53631.0,50391.0,55563.0,47784.0,0.6,0.0,0.5,-0.383589506149292,0.5065736174583435,0.19014768302440643,0.12261078506708145,0.039451953023672104,0.45832115411758423,-0.9504479765892029,-0.1515752524137497,2.83308744430542,7.607754707336426,-5.588971138000488,-5.349700927734375,52228.0,52150.0,52153.0,49270.0,-0.3000025448675481,0.51961377298239,0.5,-0.32232391834259033,-0.5760867595672607,0.22502151131629944,-0.03329193964600563,0.01296450849622488,0.42328891158103943,0.2621218264102936,0.9052284955978394,1.5135828256607056,4.227860927581787,7.712425231933594,-4.464204788208008,54591.0,52861.0,53879.0,53956.0,-0.29999491024331576,-0.5196181808098181,0.5
1.499,TAKEOFF,incipient,1.0,0.5603300929069519,0.004581865854561329,0.18314197659492493,0.05883914232254028,0.011411281302571297,0.3944750726222992,-0.3527913987636566,-0.80649334192276,8.015742301940918,-0.40319934487342834,-2.2204222679138184,-0.2317771166563034,53697.0,50866.0,55248.0,47068.0,0.6,0.0,0.5,-0.383589506149292,0.5065736174583435,0.19014768302440643,0.12091446667909622,0.04139159619808197,0.4552077054977417,-0.8097522854804993,-0.026403149589896202,2.77362322807312,2.755255937576294,-7.52528190612793,-4.700290203094482,52273.0,52542.0,52216.0,48236.0,-0.3000025448675481,0.51961377298239,0.5,-0.32232391834259033,-0.5760867595672607,0.22502151131629944,-0.04851725697517395,-0.006188609637320042,0.42917272448539734,0.4463598132133484,0.8295531868934631,1.3975863456726074,2.427725315093994,7.946732997894287,-4.1236796379089355,54086.0,54039.0,54032.0,52144.0,-0.29999491024331576,-0.5196181808098181,0.5
1.519,TAKEOFF,incipient,1.0,0.5603300929069519,0.004581865854561329,0.18314197659492493,0.06149294599890709,0.013040869496762753,0.3966984450817108,-0.34694281220436096,-0.7702298760414124,8.012629508972168,3.3028810024261475,-1.0292816162109375,-1.297124981880188,53124.0,50289.0,55489.0,47521.0,0.6,0.0,0.5,-0.36959609389305115,0.5089941620826721,0.23325422406196594,0.12593144178390503,0.04037167876958847,0.4549061059951782,-0.6945450901985168,0.1318989098072052,2.5947976112365723,4.6743621826171875,-11.807906150817871,-3.341484785079956,51116.0,54388.0,52692.0,45886.0,-0.3000025448675481,0.51961377298239,0.5,-0.32232391834259033,-0.5760867595672607,0.22502151131629944,-0.05119859427213669,-0.007823774591088295,0.4312613010406494,0.49810490012168884,0.6952815651893616,1.3221980333328247,-0.9070037007331848,4.605723857879639,-3.7122981548309326,54132.0,53755.0,53232.0,52459.0,-0.29999491024331576,-0.5196181808098181,0.5
1.539,TAKEOFF,incipient,1.0,0.5603300929069519,0.004581865854561329,0.18314197659492493,0.06399719417095184,0.01462929043918848,0.3989502787590027,-0.32550251483917236,-0.7417570352554321,7.988699913024902,0.9258652329444885,-3.8232431411743164,-1.8474078178405762,53481.0,50947.0,54953.0,46496.0,0.6,0.0,0.5,-0.36959609389305115,0.5089941620826721,0.23325422406196594,0.12145720422267914,0.04475201666355133,0.453087717294693,-0.5564448237419128,0.4777176082134247,2.545205593109131,7.642698287963867,-15.575084686279297,-3.602015733718872,51613.0,52087.0,52465.0,47972.0,-0.3000025448675481,0.51961377298239,0.5,-0.32232391834259033,-0.5760867595672607,0.22502151131629944,-0.062141869217157364,0.00028864710475318134,0.42264941334724426,0.4226464629173279,0.6706562638282776,1.2837083339691162,-0.953048825263977,1.964640498161316,-3.183527708053589,53072.0,52773.0,54628.0,52993.0,-0.29999491024331576,-0.5196181808098181,0.5
1.559,TAKEOFF,incipient,1.0,0.5664631724357605,0.005876993294805288,0.22279046475887299,0.06641295552253723,0.016101041808724403,0.3995562195777893,-0.295825332403183,-0.6594881415367126,7.954280853271484,1.4924765825271606,-5.01532506942749,-1.7967876195907593,52998.0,50664.0,55103.0,46819.0,0.6,0.0,0.5,-0.36959609389305115,0.5089941620826721,0.23325422406196594,0.1200357973575592,0.04673360288143158,0.451414555311203,-0.43408340215682983,0.7495241165161133,2.5205883979797363,5.7906904220581055,-16.44396209716797,-1.9687808752059937,50610.0,54145.0,52420.0,45840.0,-0.3000025448675481,0.51961377298239,0.5,-0.32232391834259033,-0.5760867595672607,0.22502151131629944,-0.06435651332139969,-0.0011655219132080674,0.4219459295272827,0.3517541289329529,0.6187775731086731,1.2281816005706787,-6.4775071144104,3.208505630493164,-2.4751546382904053,53413.0,52931.0,53988.0,52547.0,-0.29999491024331576,-0.5196181808098181,0.5
1.579,TAKEOFF,incipient,1.0,0.5664631724357605,0.005876993294805288,0.22279046475887299,0.08297723531723022,-0.0252887811511755,0.40948957204818726,0.06728760153055191,-0.629206657409668,7.834930896759033,3.8889143466949463,-6.878627777099609,-1.8306405544281006,53376.0,51016.0,54387.0,45817.0,0.6,0.0,0.5,-0.36959609389305115,0.5089941620826721,0.23325422406196594,0.12591701745986938,0.04156189039349556,0.441876620054245,-0.3044939935207367,0.8549011945724487,2.4612085819244385,11.421826362609863,-17.73694610595703,-3.191390037536621,50732.0,53729.0,51666.0,47061.0,-0.3000025448675481,0.51961377298239,0.5,-0.32232391834259033,-0.5760867595672607,0.22502151131629944,-0.06639833748340607,-0.0023100755643099546,0.4217173457145691,0.23467020690441132,0.5512429475784302,1.1763007640838623,-5.875205039978027,6.378739833831787,-2.30784273147583,53488.0,52140.0,53224.0,53388.0,-0.29999491024331576,-0.5196181808098181,0.5
1.599,TAKEOFF,incipient,1.0,0.5664631724357605,0.005876993294805288,0.22279046475887299,0.08435409516096115,-0.014537999406456947,0.4037555158138275,0.07031044363975525,-0.5049628019332886,7.797327995300293,2.1663479804992676,-5.375195026397705,-2.1934821605682373,53213.0,50444.0,54333.0,46515.0,0.6,0.0,0.5,-0.36959609389305115,0.5089941620826721,0.23325422406196594,0.11226719617843628,0.04686607047915459,0.4386226236820221,-0.067398801445961,1.476582646369934,2.3753440380096436,6.168769359588623,-11.921853065490723,-4.3875017166137695,51017.0,52799.0,52160.0,46808.0,-0.3000025448675481,0.51961377298239,0.5,-0.32944542169570923,-0.5792567729949951,0.26719027757644653,-0.0524306483566761,-0.01861618086695671,0.4270210862159729,0.24693645536899567,0.2797918915748596,1.104312777519226,-4.685089588165283,7.427428722381592,-2.27569580078125,53652.0,52742.0,52180.0,52640.0,-0.29999491024331576,-0.5196181808098181,0.5
1.619,TAKEOFF,incipient,1.0,0.5664631724357605,0.005876993294805288,0.22279046475887299,0.08706820011138916,-0.00981830433011055,0.4025229513645172,0.07225550711154938,-0.3978955149650574,7.739619731903076,1.9147312641143799,-8.936491012573242,-3.586982011795044,53133.0,49265.0,54264.0,47707.0,0.6,0.0,0.5,-0.3617247939109802,0.5155688524246216,0.2773292362689972,0.10250303149223328,0.05252997204661369,0.4386875331401825,0.03938966244459152,1.7633873224258423,2.305896520614624,9.121845245361328,-10.940702438354492,-3.414186477661133,51097.0,52547.0,51764.0,46724.0,-0.3000025448675481,0.51961377298239,0.5,-0.32944542169570923,-0.5792567729949951,0.26719027757644653,-0.047011855989694595,-0.022629568353295326,0.43117883801460266,0.20251144468784332,0.07295618951320648,1.0152379274368286,-2.552405834197998,10.531708717346191,-1.8681672811508179,53652.0,52742.0,52180.0,52640.0,-0.29999491024331576,-0.5196181808098181,0.5
1.639,TAKEOFF,incipient,1.0,0.5664631724357605,0.005876993294805288,0.22279046475887299,0.08910360932350159,-0.0071919928304851055,0.4010574221611023,0.03829861432313919,-0.27655690908432007,7.6512861251831055,-6.641654014587402,-4.958921909332275,-3.6773056983947754,52704.0,50179.0,54684.0,46541.0,0.6,0.0,0.5,-0.3617247939109802,0.5155688524246216,0.2773292362689972,0.09662089496850967,0.05233084410429001,0.4320233464241028,0.21332037448883057,1.9354571104049683,2.2341976165771484,5.687847137451172,-6.774289608001709,-3.007422924041748,50354.0,52769.0,51838.0,46820.0,-0.3000025448675481,0.51961377298239,0.5,-0.32944542169570923,-0.5792567729949951,0.26719027757644653,-0.05515062436461449,-0.01881995238363743,0.42258408665657043,0.13011008501052856,-0.03856974095106125,0.9661406874656677,-1.3874329328536987,5.680319786071777,-0.969838559627533,53507.0,51785.0,52646.0,51964.0,-0.29999491024331576,-0.5196181808098181,0.5
1.659,TAKEOFF,incipient,1.0,0.5770316123962402,-0.0005495456280186772,0.26509010791778564,0.08194512128829956,-0.012881000526249409,0.3978983461856842,-0.10305477678775787,-0.0845588892698288,7.641761302947998,-7.6689887046813965,-5.2432379722595215,-4.824774265289307,52295.0,50927.0,53862.0,46365.0,0.6,0.0,0.5,-0.3617247939109802,0.5155688524246216,0.2773292362689972,0.09081433713436127,0.05127684399485588,0.4229400157928467,0.34136420488357544,2.0161023139953613,2.145529270172119,2.147533416748047,0.24606922268867493,-3.100520610809326,50884.0,52400.0,51856.0,46456.0,-0.3000025448675481,0.51961377298239,0.5,-0.32944542169570923,-0.5792567729949951,0.26719027757644653,-0.05371500551700592,-0.020150450989603996,0.42295557260513306,0.09856340289115906,-0.18606702983379364,0.9388819932937622,-3.9053573608398438,3.4329731464385986,-0.1502540558576584,52777.0,51691.0,52833.0,51628.0,-0.29999491024331576,-0.5196181808098181,0.5
1.679,TAKEOFF,incipient,1.0,0.5770316123962402,-0.0005495456280186772,0.26509010791778564,0.07624992728233337,-0.010194049216806889,0.3937443792819977,-0.16781538724899292,0.004482429474592209,7.593677520751953,-7.573077201843262,-5.154911994934082,-4.143931865692139,51920.0,50982.0,54111.0,46241.0,0.6,0.0,0.5,-0.3617247939109802,0.5155688524246216,0.2773292362689972,0.08428914099931717,0.05002320557832718,0.4144470691680908,0.41126537322998047,1.9886531829833984,2.102369546890259,2.7205021381378174,-1.966814637184143,-2.6662087440490723,51394.0,51641.0,51195.0,47315.0,-0.3000025448675481,0.51961377298239,0.5,-0.32944542169570923,-0.5792567729949951,0.26719027757644653,-0.057866621762514114,-0.013735650107264519,0.41444075107574463,-0.04927670583128929,-0.23518973588943481,0.9523773789405823,-6.14831018447876,3.994549036026001,0.521433413028717,51670.0,51849.0,53747.0,51263.0,-0.29999491024331576,-0.5196181808098181,0.5
1.699,TAKEOFF,incipient,1.0,0.5770316123962402,-0.0005495456280186772,0.26509010791778564,0.07422539591789246,-0.007473078090697527,0.38683173060417175,-0.40738001465797424,0.23762322962284088,7.52306604385376,-8.742634773254395,-4.107289791107178,-5.378551483154297,50508.0,50928.0,53073.0,47768.0,0.6,0.0,0.5,-0.3617247939109802,0.5155688524246216,0.2773292362689972,0.07777640223503113,0.04850669205188751,0.4062368869781494,0.4863249659538269,1.9844025373458862,2.0429067611694336,8.542621612548828,2.1840453147888184,-4.283914566040039,51394.0,51641.0,51195.0,47315.0,-0.3000025448675481,0.51961377298239,0.5,-0.3392723500728607,-0.5786618590354919,0.3126373291015625,-0.061331890523433685,-0.010152705945074558,0.40854835510253906,-0.19828662276268005,-0.2601849436759949,0.9677029848098755,-4.737094879150391,4.551499843597412,0.16719752550125122,51994.0,51504.0,53203.0,51629.0,-0.29999491024331576,-0.5196181808098181,0.5
1.719,TAKEOFF,incipient,1.0,0.5770316123962402,-0.0005495456280186772,0.26509010791778564,0.07773053646087646,-0.011477668769657612,0.3990613520145416,-0.4415580928325653,0.2734287977218628,7.384872913360596,-5.6760125160217285,-1.6018346548080444,-6.153934478759766,51097.0,50398.0,53469.0,46913.0,0.6,0.0,0.5,-0.3528103828430176,0.5206387639045715,0.3194015622138977,0.07137033343315125,0.04677433520555496,0.39640137553215027,0.6044103503227234,1.9719794988632202,1.9682255983352661,5.956444263458252,0.47655123472213745,-2.627379894256592,51429.0,51558.0,50779.0,47402.0,-0.3000025448675481,0.51961377298239,0.5,-0.3392723500728607,-0.5786618590354919,0.3126373291015625,-0.062128860503435135,-0.008650103583931923,0.3995831608772278,-0.300940603017807,-0.3255293071269989,0.9792694449424744,-3.9631314277648926,1.236564040184021,-0.12999935448169708,52875.0,50628.0,52165.0,52316.0,-0.29999491024331576,-0.5196181808098181,0.5
1.74,TAKEOFF,incipient,1.0,0.5770316123962402,-0.0005495456280186772,0.26509010791778564,0.0765937939286232,-0.010064858011901379,0.39194977283477783,-0.6800180077552795,0.3859667479991913,7.319270610809326,-3.3236279487609863,-0.3493131995201111,-5.531161785125732,51331.0,50459.0,53271.0,46864.0,0.6,0.0,0.5,-0.3528103828430176,0.5206387639045715,0.3194015622138977,0.06494778394699097,0.0446452759206295,0.38868585228919983,0.706505298614502,1.9198400974273682,1.8892372846603394,4.330297470092773,5.259859085083008,-3.6511728763580322,50014.0,51959.0,52070.0,46781.0,-0.3000025448675481,0.51961377298239,0.5,-0.3392723500728607,-0.5786618590354919,0.3126373291015625,-0.0611417256295681,-0.007711117155849934,0.3922063112258911,-0.3586924374103546,-0.408564031124115,0.9615811705589294,1.2196956872940063,6.379563331604004,-1.0216543674468994,51988.0,52190.0,53006.0,50517.0,-0.29999491024331576,-0.5196181808098181,0.5
1.759,TAKEOFF,incipient,1.0,0.5852043032646179,-0.0009849630296230316,0.30777689814567566,0.06466737389564514,0.006714248564094305,0.38043826818466187,-0.7457730174064636,0.4117480218410492,7.193829536437988,-0.7599890232086182,1.3056153059005737,-6.417200565338135,51212.0,50034.0,53220.0,47386.0,0.6,0.0,0.5,-0.3528103828430176,0.5206387639045715,0.3194015622138977,0.058695778250694275,0.04220229387283325,0.3799191117286682,0.7461344599723816,1.8104583024978638,1.829546332359314,-0.8715049028396606,5.082269668579102,-2.2525250911712646,51232.0,52449.0,50741.0,46135.0,-0.3000025448675481,0.51961377298239,0.5,-0.3392723500728607,-0.5786618590354919,0.3126373291015625,-0.046741586178541183,-0.010027687065303326,0.37390854954719543,-0.3119021952152252,-0.6090138554573059,0.974916934967041,2.7318356037139893,5.716368198394775,-0.3031187653541565,53300.0,50893.0,51963.0,52023.0,-0.29999491024331576,-0.5196181808098181,0.5
1.779,TAKEOFF,incipient,1.0,0.5852043032646179,-0.0009849630296230316,0.30777689814567566,0.06300520151853561,0.008988379500806332,0.3724808990955353,-0.7537427544593811,0.4021758735179901,7.056549072265625,-1.5808873176574707,1.315138578414917,-6.3813862800598145,50716.0,50823.0,53561.0,46366.0,0.6,0.0,0.5,-0.3528103828430176,0.5206387639045715,0.3194015622138977,0.05043628439307213,0.0380050428211689,0.3633297085762024,0.770658552646637,1.7382848262786865,1.8108181953430176,2.314761161804199,3.0858240127563477,-2.224429130554199,50722.0,53088.0,51319.0,45586.0,-0.3000025448675481,0.51961377298239,0.5,-0.3412204384803772,-0.5800967216491699,0.3494504392147064,-0.0330086275935173,-0.015538479201495647,0.3644271194934845,-0.19513586163520813,-0.8308764696121216,0.9587203860282898,4.286328315734863,4.29532527923584,-1.4689819812774658,53364.0,51334.0,51716.0,51674.0,-0.29999491024331576,-0.5196181808098181,0.5
1.799,TAKEOFF,incipient,1.0,0.5852043032646179,-0.0009849630296230316,0.30777689814567566,0.050010133534669876,0.005147335585206747,0.3651803135871887,-0.737552285194397,0.46646231412887573,6.91989803314209,0.9187121391296387,0.5891783237457275,-6.771361827850342,50623.0,50716.0,53134.0,46278.0,0.6,0.0,0.5,-0.3528103828430176,0.5206387639045715,0.3194015622138977,0.059663210064172745,0.013133136555552483,0.34424176812171936,0.9894448518753052,1.555784821510315,1.758324384689331,2.7962214946746826,5.376868724822998,-2.5660436153411865,51109.0,52893.0,51335.0,45998.0,-0.3000025448675481,0.51961377298239,0.5,-0.3412204384803772,-0.5800967216491699,0.3494504392147064,-0.030457690358161926,-0.014804705046117306,0.3535040616989136,-0.1267842948436737,-0.9086629152297974,0.9368413090705872,3.3633077144622803,1.0936686992645264,-0.5931028127670288,52626.0,51621.0,52549.0,51334.0,-0.29999491024331576,-0.5196181808098181,0.5
1.819,TAKEOFF,incipient,1.0,0.5852043032646179,-0.0009849630296230316,0.30777689814567566,0.05450741946697235,-0.01015884056687355,0.36352118849754333,-0.6004143357276917,0.3661103844642639,6.708348751068115,1.8680468797683716,2.8631651401519775,-6.543678283691406,51275.0,50088.0,52357.0,46820.0,0.6,0.0,0.5,-0.34491193294525146,0.520114541053772,0.35385069251060486,0.05465999245643616,0.009833631105720997,0.33254474401474,1.0126698017120361,1.4795132875442505,1.7085340023040771,-1.446354627609253,5.969489097595215,-2.607252359390259,51243.0,52314.0,51103.0,47015.0,-0.3000025448675481,0.51961377298239,0.5,-0.3412204384803772,-0.5800967216491699,0.3494504392147064,-0.02758953720331192,-0.014293450862169266,0.34230169653892517,-0.09157168865203857,-0.9014450311660767,0.9279577732086182,0.7534407377243042,-3.332937717437744,0.13423925638198853,52549.0,51920.0,52774.0,50901.0,-0.29999491024331576,-0.5196181808098181,0.5
1.839,TAKEOFF,incipient,1.0,0.5852043032646179,-0.0009849630296230316,0.30777689814567566,0.061041876673698425,-0.010052533820271492,0.3484441041946411,-0.5630630254745483,0.3676001727581024,6.566651821136475,2.997551679611206,1.9961353540420532,-6.726949214935303,51712.0,50850.0,51994.0,46143.0,0.6,0.0,0.5,-0.34491193294525146,0.520114541053772,0.35385069251060486,0.03753994032740593,0.01723633147776127,0.3340076506137848,0.8928273916244507,1.5166891813278198,1.703382968902588,-6.733048915863037,2.1474077701568604,-2.311671257019043,50111.0,51815.0,51935.0,47101.0,-0.3000025448675481,0.51961377298239,0.5,-0.3412204384803772,-0.5800967216491699,0.3494504392147064,-0.05153685063123703,0.007974941283464432,0.31941691040992737,-0.27906832098960876,-0.6239718198776245,0.958072304725647,-3.6875593662261963,-5.048511981964111,0.49096566438674927,51864.0,52399.0,53546.0,51100.0,-0.29999491024331576,-0.5196181808098181,0.5
1.859,TAKEOFF,incipient,1.0,0.5918653011322021,-0.0025383669417351484,0.3421586751937866,0.05370291322469711,0.00022374682885129005,0.33713603019714355,-0.6185023784637451,0.2899106740951538,6.46254825592041,2.396602153778076,-1.3586024045944214,-6.7187089920043945,50651.0,50400.0,52857.0,46973.0,0.6,0.0,0.5,-0.34491193294525146,0.520114541053772,0.35385069251060486,0.02689320594072342,0.018930446356534958,0.32522085309028625,0.7097303867340088,1.5086135864257812,1.7239147424697876,-7.072716236114502,-0.053501393646001816,-1.7204142808914185,49857.0,51867.0,52264.0,46797.0,-0.3000025448675481,0.51961377298239,0.5,-0.3412204384803772,-0.5800967216491699,0.3494504392147064,-0.062496211379766464,-0.00010849369573406875,0.3199962377548218,-0.2897869944572449,-0.4261957108974457,0.9661363959312439,-3.6025426387786865,-6.7792744636535645,0.3230646550655365,52218.0,51601.0,53253.0,51178.0,-0.29999491024331576,-0.5196181808098181,0.5
1.879,TAKEOFF,incipient,1.0,0.5918653011322021,-0.0025383669417351484,0.3421586751937866,0.05370291322469711,0.00022374682885129005,0.33713603019714355,-0.5425702929496765,0.267121821641922,6.258304119110107,-4.203200817108154,-0.44292306900024414,-6.724394798278809,50763.0,50301.0,52775.0,47405.0,0.6,0.0,0.5,-0.34491193294525146,0.520114541053772,0.35385069251060486,0.01948556862771511,0.01808325946331024,0.3157220482826233,0.5260592103004456,1.5072895288467407,1.6930395364761353,-4.192509174346924,0.9613922238349915,-1.4429006576538086,50985.0,52039.0,51096.0,46660.0,-0.3000025448675481,0.51961377298239,0.5,-0.35196220874786377,-0.5794694423675537,0.3824826776981354,-0.06104419007897377,0.0007835183059796691,0.308281272649765,-0.36358484625816345,-0.3398474454879761,0.9796804189682007,-0.22887782752513885,0.9389954805374146,-0.081943579018116,52504.0,51799.0,52849.0,51156.0,-0.29999491024331576,-0.5196181808098181,0.5
1.899,TAKEOFF,incipient,1.0,0.5918653011322021,-0.0025383669417351484,0.3421586751937866,0.05623960122466087,0.0021094048861414194,0.32180485129356384,-0.5823280811309814,0.2589830160140991,6.0763115882873535,-2.6234564781188965,-2.395036220550537,-6.549221038818359,50646.0,50020.0,52986.0,47849.0,0.6,0.0,0.5,-0.34491193294525146,0.520114541053772,0.35385069251060486,0.013629229739308357,0.016338204964995384,0.3043297827243805,0.42248526215553284,1.4844120740890503,1.6847569942474365,-6.038130760192871,6.028133869171143,-2.2953860759735107,49646.0,51984.0,52322.0,46861.0,-0.3000025448675481,0.51961377298239,0.5,-0.35196220874786377,-0.5794694423675537,0.3824826776981354,-0.05991514399647713,0.001923580770380795,0.2983799874782562,-0.3810291886329651,-0.3886759579181671,0.976253092288971,1.3686081171035767,5.6679558753967285,0.056861359626054764,52504.0,51799.0,52849.0,51156.0,-0.29999491024331576,-0.5196181808098181,0.5
1.919,TAKEOFF,incipient,1.0,0.5918653011322021,-0.0025383669417351484,0.3421586751937866,0.05744609609246254,0.004564488772302866,0.308204710483551,-0.7601956129074097,0.33274760842323303,5.964772701263428,-3.250732898712158,-1.7805312871932983,-7.036671161651611,51170.0,50324.0,52616.0,47344.0,0.6,0.0,0.5,-0.3448369801044464,0.5237171649932861,0.3883204460144043,0.008593384176492691,0.014120344072580338,0.29330000281333923,0.30990996956825256,1.374279499053955,1.6584352254867554,-0.370326429605484,11.94133186340332,-0.6746957302093506,50871.0,51997.0,51409.0,46676.0,-0.3000025448675481,0.51961377298239,0.5,-0.35196220874786377,-0.5794694423675537,0.3824826776981354,-0.03340866044163704,-0.010404445230960846,0.2861064374446869,-0.22336070239543915,-0.762001097202301,0.9924927353858948,6.038239002227783,13.037440299987793,0.2240302562713623,54033.0,50939.0,51538.0,51984.0,-0.29999491024331576,-0.5196181808098181,0.5
1.94,TAKEOFF,incipient,1.0,0.5918653011322021,-0.0025383669417351484,0.3421586751937866,0.056063149124383926,0.02153993397951126,0.2995794713497162,-0.8900831341743469,0.3582508862018585,5.844961166381836,0.33601394295692444,-3.0237202644348145,-5.602889060974121,50370.0,49649.0,53408.0,48055.0,0.6,0.0,0.5,-0.3448369801044464,0.5237171649932861,0.3883204460144043,0.004330440424382687,0.01304224506020546,0.28393471240997314,0.28043580055236816,1.1322859525680542,1.6439906358718872,2.877925395965576,10.747549057006836,-0.4696950912475586,51350.0,52691.0,49645.0,47352.0,-0.3000025448675481,0.51961377298239,0.5,-0.35196220874786377,-0.5794694423675537,0.3824826776981354,-0.031139904633164406,-0.00957554392516613,0.27619460225105286,-0.10104228556156158,-1.0271484851837158,1.0066893100738525,7.878674507141113,13.27440357208252,1.2096710205078125,54077.0,51142.0,51949.0,51452.0,-0.29999491024331576,-0.5196181808098181,0.5
1.959,TAKEOFF,incipient,1.0,0.6019325256347656,0.0020594573579728603,0.37342822551727295,0.05703427270054817,0.031656887382268906,0.29030558466911316,-0.8982505202293396,0.3941197395324707,5.734922409057617,4.158995628356934,-5.185904502868652,-5.471081256866455,50370.0,49649.0,53408.0,48055.0,0.6,0.0,0.5,-0.3448369801044464,0.5237171649932861,0.3883204460144043,-0.0010707869660109282,0.00401510251685977,0.2634979486465454,0.4357593357563019,0.9140491485595703,1.6024179458618164,5.265739917755127,10.686929702758789,-0.7382591366767883,51350.0,52691.0,49645.0,47352.0,-0.3000025448675481,0.51961377298239,0.5,-0.35196220874786377,-0.5794694423675537,0.3824826776981354,-0.012200537137687206,-0.01890917681157589,0.2656092941761017,0.13434380292892456,-1.3883543014526367,1.0549156665802002,4.611795425415039,8.134896278381348,2.8616602420806885,54019.0,51660.0,52291.0,50778.0,-0.29999491024331576,-0.5196181808098181,0.5
1.979,TAKEOFF,incipient,1.0,0.6019325256347656,0.0020594573579728603,0.37342822551727295,0.037754155695438385,0.02804369479417801,0.27601632475852966,-0.7699785828590393,0.5858578681945801,5.669002056121826,4.2845001220703125,-4.44719934463501,-4.685182571411133,50915.0,50854.0,52983.0,46975.0,0.6,0.0,0.5,-0.3448369801044464,0.5237171649932861,0.3883204460144043,-0.003470188472419977,0.0012874247040599585,0.24939370155334473,0.5243081450462341,0.7152355313301086,1.6126689910888672,-2.5300397872924805,8.46262264251709,0.23528540134429932,52653.0,52457.0,50061.0,46763.0,-0.3000025448675481,0.51961377298239,0.5,-0.34650465846061707,-0.5847131609916687,0.4088760018348694,-0.001751184812746942,-0.02290090173482895,0.253902792930603,0.23966294527053833,-1.5580387115478516,1.1284139156341553,-1.685293197631836,1.8608683347702026,2.493152141571045,53392.0,51942.0,52584.0,51114.0,-0.29999491024331576,-0.5196181808098181,0.5
1.999,TAKEOFF,incipient,1.0,0.6019325256347656,0.0020594573579728603,0.37342822551727295,0.03230462223291397,0.03259231522679329,0.2583853006362915,-0.6567798256874084,0.6872937083244324,5.607007026672363,8.717597007751465,-2.3655755519866943,-6.662909507751465,51461.0,50954.0,52566.0,46936.0,0.6,0.0,0.5,-0.3448369801044464,0.5237171649932861,0.3883204460144043,-0.005634330213069916,-0.0004771731037180871,0.2399606704711914,0.5353279113769531,0.5167648196220398,1.5944353342056274,-6.282637596130371,11.930493354797363,-1.2487201690673828,50715.0,52372.0,51470.0,47735.0,-0.3000025448675481,0.51961377298239,0.5,-0.34650465846061707,-0.5847131609916687,0.4088760018348694,0.00487920269370079,-0.024435969069600105,0.24304424226284027,0.17341205477714539,-1.5482968091964722,1.178074598312378,-9.804268836975098,-4.8190131187438965,2.9387147426605225,53307.0,51560.0,52954.0,51427.0,-0.29999491024331576,-0.5196181808098181,0.5
2.019,TAKEOFF,incipient,1.0,0.6019325256347656,0.0020594573579728603,0.37342822551727295,0.030818380415439606,0.033597033470869064,0.25211238861083984,-0.45682474970817566,0.7316271066665649,5.5208821296691895,8.306988716125488,0.9684267044067383,-6.558481216430664,51568.0,50851.0,52442.0,47046.0,0.6,0.0,0.5,-0.34286510944366455,0.5209459066390991,0.4115696847438812,0.002937945071607828,-0.016221601516008377,0.21402934193611145,0.5468107461929321,0.21245235204696655,1.5866549015045166,-7.853137016296387,5.324342250823975,-0.6788239479064941,51737.0,50847.0,51561.0,49489.0,-0.3000025448675481,0.51961377298239,0.5,-0.34650465846061707,-0.5847131609916687,0.4088760018348694,0.009450001642107964,-0.024260804057121277,0.23203293979167938,-0.032665640115737915,-1.392126202583313,1.2316068410873413,-14.255499839782715,-12.171757698059082,2.990983009338379,52984.0,51495.0,53563.0,51492.0,-0.29999491024331576,-0.5196181808098181,0.5
2.039,TAKEOFF,incipient,1.0,0.6019325256347656,0.0020594573579728603,0.37342822551727295,0.02844168245792389,0.034132976084947586,0.2425355762243271,-0.2706775665283203,0.7223499417304993,5.3959808349609375,7.29640007019043,2.0500388145446777,-5.223172187805176,51211.0,50765.0,52979.0,47053.0,0.6,0.0,0.5,-0.34286510944366455,0.5209459066390991,0.4115696847438812,0.009356116876006126,-0.023988688364624977,0.1957744061946869,0.45377618074417114,0.01789907179772854,1.5307793617248535,-8.654284477233887,2.5262715816497803,-0.5578946471214294,51667.0,52715.0,52099.0,47624.0,-0.3000025448675481,0.51961377298239,0.5,-0.34650465846061707,-0.5847131609916687,0.4088760018348694,-0.02310025319457054,0.0152188865467906,0.2053995430469513,-0.6027554869651794,-0.8016557693481445,1.316696047782898,-10.618483543395996,-17.554035186767578,2.183270215988159,51982.0,51622.0,55070.0,52009.0,-0.29999491024331576,-0.5196181808098181,0.5
2.059,TAKEOFF,incipient,1.0,0.6017119288444519,0.0029722556937485933,0.40255969762802124,0.02844168245792389,0.034132976084947586,0.2425355762243271,-0.12248286604881287,0.6546669006347656,5.287903785705566,5.685572147369385,1.6895475387573242,-4.73623514175415,51524.0,50721.0,52629.0,47404.0,0.6,0.0,0.5,-0.34286510944366455,0.5209459066390991,0.4115696847438812,0.009006495587527752,-0.030682124197483063,0.18399563431739807,0.2933194935321808,-0.04293793439865112,1.5050032138824463,-13.120412826538086,-1.6096078157424927,-0.38678985834121704,51110.0,52313.0,52958.0,48308.0,-0.3000025448675481,0.51961377298239,0.5,-0.34650465846061707,-0.5847131609916687,0.4088760018348694,-0.034738633781671524,0.011583326384425163,0.20421873033046722,-0.7791720032691956,-0.3585946559906006,1.3506056070327759,-4.636242866516113,-16.318687438964844,2.3867666721343994,52073.0,52464.0,54899.0,51001.0,-0.29999491024331576,-0.5196181808098181,0.5
2.079,TAKEOFF,incipient,1.0,0.6017119288444519,0.0029722556937485933,0.40255969762802124,0.024471042677760124,0.034070614725351334,0.22162114083766937,-0.01119871623814106,0.6009711027145386,5.187701225280762,3.319589614868164,5.032618045806885,-5.436415195465088,51675.0,49153.0,52529.0,49267.0,0.6,0.0,0.5,-0.34286510944366455,0.5209459066390991,0.4115696847438812,0.009174632839858532,-0.03149039298295975,0.17702090740203857,0.07520399242639542,-0.011571132577955723,1.480015516281128,-12.09930419921875,-3.048870801925659,0.1861872375011444,51110.0,52313.0,52958.0,48308.0,-0.3000025448675481,0.51961377298239,0.5,-0.34650465846061707,-0.5847131609916687,0.4088760018348694,-0.03404843434691429,0.013453495688736439,0.19698183238506317,-0.837112545967102,-0.04606667533516884,1.4004406929016113,5.798233985900879,-8.919882774353027,3.681673049926758,53485.0,52158.0,53765.0,51238.0,-0.29999491024331576,-0.5196181808098181,0.5
2.099,TAKEOFF,incipient,1.0,0.6017119288444519,0.0029722556937485933,0.40255969762802124,0.024471042677760124,0.034070614725351334,0.22162114083766937,0.07405240833759308,0.5354593992233276,5.0771002769470215,1.7141238451004028,1.6905502080917358,-6.591552734375,51675.0,49153.0,52529.0,49267.0,0.6,0.0,0.5,-0.34286510944366455,0.5209459066390991,0.4115696847438812,-0.005792958661913872,-0.023052208125591278,0.1798519790172577,-0.22316691279411316,0.12774278223514557,1.4776291847229004,-8.755908012390137,-2.311664581298828,-0.2881922423839569,51944.0,52517.0,52087.0,47978.0,-0.3000025448675481,0.51961377298239,0.5,-0.35677123069763184,-0.5810178518295288,0.428683876991272,-0.03375827521085739,0.015538894571363926,0.18836605548858643,-0.7286282181739807,0.062463678419589996,1.4400382041931152,10.257028579711914,5.867071151733398,3.236753225326538,54118.0,52496.0,53337.0,50981.0,-0.29999491024331576,-0.5196181808098181,0.5
2.119,TAKEOFF,incipient,1.0,0.6017119288444519,0.0029722556937485933,0.40255969762802124,0.09080115705728531,0.011056652292609215,0.22079463303089142,0.1952449530363083,0.04413572698831558,4.953012466430664,1.9672313928604126,3.161430835723877,-4.871354103088379,52537.0,49991.0,51705.0,48210.0,0.6,0.0,0.5,-0.3442263901233673,0.519191563129425,0.42979779839515686,-0.00790642574429512,-0.018369777128100395,0.1762554943561554,-0.4478994905948639,0.17260698974132538,1.513550877571106,-11.24709701538086,3.4401514530181885,0.2651791572570801,51469.0,52565.0,52504.0,47905.0,-0.3000025448675481,0.51961377298239,0.5,-0.35677123069763184,-0.5810178518295288,0.428683876991272,-0.03404585272073746,0.019103702157735825,0.17847996950149536,-0.5057257413864136,-0.10628867149353027,1.5032695531845093,9.563429832458496,16.329587936401367,4.046819686889648,54930.0,51635.0,52748.0,51737.0,-0.29999491024331576,-0.5196181808098181,0.5
2.14,TAKEOFF,incipient,1.0,0.6017119288444519,0.0029722556937485933,0.40255969762802124,0.07217292487621307,0.005575834773480892,0.21246737241744995,0.3881130814552307,0.17704714834690094,4.752542972564697,0.7269123196601868,-2.664576768875122,-3.850123643875122,52163.0,50263.0,52958.0,46732.0,0.6,0.0,0.5,-0.3442263901233673,0.519191563129425,0.42979779839515686,-0.00849149003624916,-0.016698092222213745,0.17143787443637848,-0.6570234894752502,0.12045099586248398,1.5057293176651,-7.477790832519531,4.7137579917907715,1.077899694442749,51425.0,52449.0,52761.0,47850.0,-0.3000025448675481,0.51961377298239,0.5,-0.35677123069763184,-0.5810178518295288,0.428683876991272,-0.03038424625992775,0.020341135561466217,0.1759616583585739,-0.293363481760025,-0.48034119606018066,1.6037043333053589,12.337964057922363,18.874923706054688,3.4674508571624756,54838.0,51675.0,52760.0,51672.0,-0.29999491024331576,-0.5196181808098181,0.5
2.159,TAKEOFF,incipient,1.0,0.610260546207428,0.0019115795148536563,0.42396846413612366,0.06644044071435928,0.0016502608777955174,0.20801469683647156,0.3373042941093445,0.22848528623580933,4.773515224456787,-1.5174932479858398,-8.038909912109375,-3.396949052810669,51376.0,50421.0,53811.0,46603.0,0.6,0.0,0.5,-0.3442263901233673,0.519191563129425,0.42979779839515686,-0.008876392617821693,-0.01436453778296709,0.1673080027103424,-0.7885452508926392,0.02018817886710167,1.514200210571289,-1.851004958152771,3.996678590774536,2.476731300354004,52059.0,52939.0,52105.0,47321.0,-0.3000025448675481,0.51961377298239,0.5,-0.35677123069763184,-0.5810178518295288,0.428683876991272,-0.026699582114815712,0.020276840776205063,0.1712171584367752,-0.051293741911649704,-0.8502740263938904,1.6857534646987915,8.053110122680664,14.44975471496582,2.799182653427124,54763.0,51094.0,52918.0,52201.0,-0.29999491024331576,-0.5196181808098181,0.5
2.179,TAKEOFF,incipient,1.0,0.610260546207428,0.0019115795148536563,0.42396846413612366,0.06298652291297913,0.007572508417069912,0.1992911845445633,0.3096926510334015,0.3964095115661621,4.740020751953125,-1.956197738647461,-14.998919486999512,-3.2832868099212646,50630.0,51055.0,54001.0,46383.0,0.6,0.0,0.5,-0.3442263901233673,0.519191563129425,0.42979779839515686,0.012082039378583431,-0.024479683488607407,0.1486009806394577,-0.6988314390182495,-0.25296005606651306,1.5332118272781372,5.480996131896973,4.233090877532959,1.8356552124023438,52667.0,52510.0,52122.0,48156.0,-0.3000025448675481,0.51961377298239,0.5,-0.35677123069763184,-0.5810178518295288,0.428683876991272,-0.0167196374386549,0.017648914828896523,0.16133452951908112,0.13723735511302948,-1.1929982900619507,1.7455708980560303,4.647391319274902,9.08499813079834,2.6032278537750244,54499.0,51180.0,53368.0,52323.0,-0.29999491024331576,-0.5196181808098181,0.5
2.199,TAKEOFF,incipient,1.0,0.610260546207428,0.0019115795148536563,0.42396846413612366,0.06038733571767807,0.009786614216864109,0.19566161930561066,0.247637540102005,0.6655591130256653,4.678600311279297,-3.269200325012207,-14.930811882019043,-2.855717658996582,50630.0,51055.0,54001.0,46383.0,0.6,0.0,0.5,-0.3442263901233673,0.519191563129425,0.42979779839515686,0.012981103733181953,-0.022143669426441193,0.145631805062294,-0.6076695919036865,-0.4017714858055115,1.5163414478302002,4.343766212463379,1.2842483520507812,2.5058963298797607,52036.0,53712.0,52695.0,46784.0,-0.3000025448675481,0.51961377298239,0.5,-0.35157904028892517,-0.5846534371376038,0.4464894235134125,-0.0073342472314834595,0.01439438946545124,0.15519466996192932,0.23998618125915527,-1.4033281803131104,1.813016653060913,2.9875192642211914,1.0049241781234741,3.3492088317871094,54203.0,52051.0,53830.0,51443.0,-0.29999491024331576,-0.5196181808098181,0.5
2.219,TAKEOFF,incipient,1.0,0.610260546207428,0.0019115795148536563,0.42396846413612366,0.06362757086753845,0.00022999460634309798,0.18802644312381744,0.16183501482009888,0.9508296251296997,4.599822044372559,-9.39980411529541,-9.807501792907715,-1.9436262845993042,50815.0,50554.0,54119.0,46858.0,0.6,0.0,0.5,-0.3391602039337158,0.5149531960487366,0.4439852833747864,0.019268976524472237,-0.020889071747660637,0.14118419587612152,-0.5252352952957153,-0.4327186346054077,1.5674766302108765,3.1524410247802734,-4.10552453994751,1.678521990776062,53019.0,53214.0,52145.0,47041.0,-0.3000025448675481,0.51961377298239,0.5,-0.35157904028892517,-0.5846534371376038,0.4464894235134125,-0.0026389409322291613,0.013710683211684227,0.14852753281593323,0.26387158036231995,-1.377968668937683,1.8770813941955566,-3.4370296001434326,-6.7512383460998535,2.764724016189575,53635.0,51940.0,54510.0,51613.0,-0.29999491024331576,-0.5196181808098181,0.5
2.239,TAKEOFF,incipient,1.0,0.610260546207428,0.0019115795148536563,0.42396846413612366,0.05289743095636368,0.0027779440861195326,0.1815766841173172,0.00550974253565073,1.1854418516159058,4.603350639343262,-3.4703667163848877,-10.51978588104248,-2.6837692260742188,52131.0,49925.0,53236.0,47182.0,0.6,0.0,0.5,-0.3391602039337158,0.5149531960487366,0.4439852833747864,0.0025221039541065693,-0.006741960998624563,0.14672324061393738,-0.4990171194076538,-0.26815325021743774,1.6346778869628906,-0.8117493391036987,-6.994296073913574,-0.0845903530716896,51327.0,53713.0,53289.0,46972.0,-0.3000025448675481,0.51961377298239,0.5,-0.35157904028892517,-0.5846534371376038,0.4464894235134125,-0.018767785280942917,0.03484462574124336,0.1362011581659317,-0.0038884852547198534,-1.0519461631774902,1.9427142143249512,-4.623531818389893,-12.083983421325684,1.9935485124588013,52965.0,52488.0,55323.0,51429.0,-0.29999491024331576,-0.5196181808098181,0.5
2.26,TAKEOFF,incipient,1.0,0.6155467629432678,0.003700711764395237,0.44385090470314026,0.042965080589056015,0.005494536831974983,0.16787616908550262,-0.08068601042032242,1.3526556491851807,4.557539939880371,-0.8547182679176331,-4.3216938972473145,-1.676342248916626,51950.0,50716.0,53605.0,46160.0,0.6,0.0,0.5,-0.3391602039337158,0.5149531960487366,0.4439852833747864,0.0031956005841493607,-0.005079127848148346,0.1431288719177246,-0.5697885751724243,-0.037582602351903915,1.6265861988067627,-10.563178062438965,0.4059150218963623,1.866555094718933,51327.0,53713.0,53289.0,46972.0,-0.3000025448675481,0.51961377298239,0.5,-0.35157904028892517,-0.5846534371376038,0.4464894235134125,-0.015453003346920013,0.035051312297582626,0.13106057047843933,-0.0897342637181282,-0.8136615753173828,1.9803361892700195,-2.371267557144165,-12.875845909118652,1.4747880697250366,53833.0,51987.0,54645.0,51992.0,-0.29999491024331576,-0.5196181808098181,0.5
2.279,TAKEOFF,incipient,1.0,0.6155467629432678,0.003700711764395237,0.44385090470314026,0.042965080589056015,0.005494536831974983,0.16787616908550262,-0.0958896204829216,1.4268109798431396,4.5227484703063965,1.7192966938018799,-0.3424011170864105,-1.7945168018341064,52512.0,50161.0,53168.0,46779.0,0.6,0.0,0.5,-0.3391602039337158,0.5149531960487366,0.4439852833747864,0.001953075872734189,0.0019061018247157335,0.1405118852853775,-0.8192265629768372,-0.009164526127278805,1.6312346458435059,-10.05551528930664,-0.2315964251756668,0.688835859298706,51249.0,52722.0,53420.0,47916.0,-0.3000025448675481,0.51961377298239,0.5,-0.35157904028892517,-0.5846534371376038,0.4464894235134125,-0.01292729564011097,0.03548978269100189,0.12772193551063538,-0.12805776298046112,-0.6124997138977051,2.0097782611846924,2.3562815189361572,-5.36572790145874,0.913532555103302,54126.0,52420.0,54283.0,51744.0,-0.29999491024331576,-0.5196181808098181,0.5
2.299,TAKEOFF,incipient,1.0,0.6155467629432678,0.003700711764395237,0.44385090470314026,0.03817363455891609,0.005411569029092789,0.1621866673231125,-0.06500084698200226,1.4532227516174316,4.497424602508545,3.667173385620117,-0.2021043449640274,-1.4326858520507812,53227.0,49434.0,52364.0,47934.0,0.6,0.0,0.5,-0.3391602039337158,0.5149531960487366,0.4439852833747864,0.0027110029477626085,0.006780617404729128,0.1347362995147705,-1.0115792751312256,0.006886516697704792,1.6532045602798462,-2.235720157623291,-0.4432610273361206,1.9875036478042603,51249.0,52722.0,53420.0,47916.0,-0.3000025448675481,0.51961377298239,0.5,-0.35575658082962036,-0.5792425274848938,0.45840972661972046,-0.007868234068155289,0.028901131823658943,0.1260867565870285,0.050901543349027634,-0.5346255898475647,2.0115549564361572,9.283714294433594,0.14568941295146942,1.009109377861023,54759.0,52285.0,53815.0,51810.0,-0.29999491024331576,-0.5196181808098181,0.5
2.319,TAKEOFF,incipient,1.0,0.6155467629432678,0.003700711764395237,0.44385090470314026,0.06097995489835739,0.012633834034204483,0.15963268280029297,-0.052685339003801346,1.2140451669692993,4.462498188018799,4.8301286697387695,1.4870492219924927,-0.9453118443489075,52484.0,49861.0,53026.0,47365.0,0.6,0.0,0.5,-0.34304413199424744,0.5198805332183838,0.4592650234699249,0.0012161179911345243,0.013107828795909882,0.13611964881420135,-1.0516728162765503,0.06774978339672089,1.7129043340682983,5.896245956420898,-2.2613136768341064,1.0076985359191895,52313.0,53387.0,52422.0,46736.0,-0.3000025448675481,0.51961377298239,0.5,-0.35575658082962036,-0.5792425274848938,0.45840972661972046,-0.010263617150485516,0.021229702979326248,0.12222199887037277,0.25165799260139465,-0.5644809603691101,2.0116536617279053,9.744563102722168,4.203969478607178,1.2258095741271973,54759.0,52285.0,53815.0,51810.0,-0.29999491024331576,-0.5196181808098181,0.5
2.339,TAKEOFF,incipient,1.0,0.6155467629432678,0.003700711764395237,0.44385090470314026,0.043308671563863754,0.0056580486707389355,0.1535777747631073,0.012345211580395699,1.2016557455062866,4.472448825836182,-1.0537612438201904,0.6596055030822754,-2.356724977493286,51359.0,51028.0,53984.0,45977.0,0.6,0.0,0.5,-0.34304413199424744,0.5198805332183838,0.4592650234699249,0.0013018251629546285,0.01610555872321129,0.1392630785703659,-0.8160796761512756,0.06309425830841064,1.7455663681030273,13.531476020812988,2.0910680294036865,1.6184443235397339,52319.0,51668.0,52518.0,48691.0,-0.3000025448675481,0.51961377298239,0.5,-0.35575658082962036,-0.5792425274848938,0.45840972661972046,0.007362606003880501,0.012893005274236202,0.1235981285572052,0.47575801610946655,-0.7700117230415344,2.0684077739715576,7.2172017097473145,4.173544883728027,1.0423189401626587,55065.0,51462.0,53572.0,52438.0,-0.29999491024331576,-0.5196181808098181,0.5
2.359,TAKEOFF,incipient,1.0,0.6202245354652405,0.004446514882147312,0.46175438165664673,0.043308671563863754,0.0056580486707389355,0.1535777747631073,-0.01003427617251873,1.1842440366744995,4.4059953689575195,-3.5115208625793457,-2.432156801223755,-2.13454270362854,51359.0,51028.0,53984.0,45977.0,0.6,0.0,0.5,-0.34304413199424744,0.5198805332183838,0.4592650234699249,-0.0006973650888539851,0.018023250624537468,0.13512545824050903,-0.5384764075279236,0.03291178494691849,1.778509497642517,11.751383781433105,6.9280900955200195,2.965223550796509,52475.0,54768.0,52397.0,44686.0,-0.3000025448675481,0.51961377298239,0.5,-0.35575658082962036,-0.5792425274848938,0.45840972661972046,0.009901105426251888,0.0115225650370121,0.1197172999382019,0.566224992275238,-0.8672716617584229,2.0938007831573486,-0.30475953221321106,5.78676176071167,0.6228947043418884,54736.0,51579.0,53829.0,52457.0,-0.29999491024331576,-0.5196181808098181,0.5
2.379,TAKEOFF,incipient,1.0,0.6202245354652405,0.004446514882147312,0.46175438165664673,0.03690921515226364,0.008680755272507668,0.14629113674163818,-0.08917335420846939,1.2553876638412476,4.4120073318481445,-1.9715849161148071,-4.954806804656982,-1.7691017389297485,51576.0,50418.0,53981.0,46560.0,0.6,0.0,0.5,-0.34304413199424744,0.5198805332183838,0.4592650234699249,0.0021051401272416115,0.016018705442547798,0.1301642507314682,-0.2825421690940857,-0.02605324611067772,1.792027473449707,11.620742797851562,3.0065014362335205,2.2522456645965576,52034.0,53813.0,52783.0,45988.0,-0.3000025448675481,0.51961377298239,0.5,-0.35097143054008484,-0.5845184326171875,0.4723227620124817,0.012812496162950993,0.009749459102749825,0.11748750507831573,0.5197073221206665,-0.9273209571838379,2.1136844158172607,-7.4597320556640625,-0.23515670001506805,1.2289212942123413,54567.0,51556.0,54030.0,52476.0,-0.29999491024331576,-0.5196181808098181,0.5
2.399,TAKEOFF,incipient,1.0,0.6202245354652405,0.004446514882147312,0.46175438165664673,0.03464817255735397,0.008665951900184155,0.14153985679149628,-0.14258040487766266,1.3838468790054321,4.374776840209961,-0.2756437063217163,-8.420629501342773,-1.6034349203109741,52506.0,50755.0,53186.0,46314.0,0.6,0.0,0.5,-0.34304413199424744,0.5198805332183838,0.4592650234699249,0.0018108345102518797,0.017393436282873154,0.12948426604270935,-0.10295708477497101,-0.04533364996314049,1.7789500951766968,4.656400203704834,-1.381346344947815,-0.17333197593688965,51775.0,52266.0,52747.0,48201.0,-0.3000025448675481,0.51961377298239,0.5,-0.35097143054008484,-0.5845184326171875,0.4723227620124817,0.015998879447579384,0.008028160780668259,0.11506566405296326,0.3634032607078552,-0.8877697587013245,2.1335201263427734,-10.022618293762207,-5.885137557983398,0.9314895868301392,53940.0,51718.0,54716.0,52312.0,-0.29999491024331576,-0.5196181808098181,0.5
2.419,TAKEOFF,incipient,1.0,0.6202245354652405,0.004446514882147312,0.46175438165664673,0.030174724757671356,0.008750802837312222,0.13462457060813904,-0.13187023997306824,1.5309665203094482,4.345089912414551,2.75968861579895,-6.480510711669922,-1.3234317302703857,52106.0,49961.0,53557.0,47408.0,0.6,0.0,0.5,-0.3385758101940155,0.5186173915863037,0.4711740016937256,0.002874856349080801,0.018538083881139755,0.12567974627017975,-0.0655754804611206,-0.0404764860868454,1.740851640701294,-5.757145881652832,2.7867491245269775,0.9410679340362549,52070.0,52935.0,52653.0,47242.0,-0.3000025448675481,0.51961377298239,0.5,-0.35097143054008484,-0.5845184326171875,0.4723227620124817,0.019085602834820747,0.006771343294531107,0.11110424250364304,0.1758679300546646,-0.7226435542106628,2.152906656265259,-10.333683967590332,-9.752259254455566,1.7910805940628052,54439.0,52405.0,54884.0,50978.0,-0.29999491024331576,-0.5196181808098181,0.5
2.44,TAKEOFF,incipient,1.0,0.6202245354652405,0.004446514882147312,0.46175438165664673,0.02518797293305397,0.008844733238220215,0.12861742079257965,-0.06852930039167404,1.6527601480484009,4.308171272277832,2.2463722229003906,-1.8475277423858643,-2.005516767501831,51889.0,51141.0,53767.0,46174.0,0.6,0.0,0.5,-0.3385758101940155,0.5186173915863037,0.4711740016937256,0.004979890771210194,0.019866399466991425,0.12176571041345596,-0.16328302025794983,-0.05545356124639511,1.7328640222549438,-3.770078659057617,-7.755341529846191,0.4898332953453064,51071.0,53954.0,53429.0,46153.0,-0.3000025448675481,0.51961377298239,0.5,-0.35097143054008484,-0.5845184326171875,0.4723227620124817,0.04366367682814598,-0.007406584452837706,0.10965760797262192,0.14299091696739197,-0.5978652238845825,2.171034812927246,-4.609500408172607,-10.256692886352539,0.316384881734848,54368.0,51708.0,54161.0,51957.0,-0.29999491024331576,-0.5196181808098181,0.5
2.459,TAKEOFF,incipient,1.0,0.6230171322822571,0.006032807752490044,0.47594696283340454,0.014147141017019749,0.008397760801017284,0.11681290715932846,-0.0006444057216867805,1.7280460596084595,4.262476444244385,2.3437280654907227,0.8240907192230225,-2.69185733795166,51873.0,51907.0,53782.0,45403.0,0.6,0.0,0.5,-0.3385758101940155,0.5186173915863037,0.4711740016937256,0.005181628279387951,0.020348358899354935,0.11928219348192215,-0.2264767587184906,0.05915755406022072,1.7521412372589111,1.2966278791427612,-9.093583106994629,0.8363255262374878,51234.0,51827.0,53520.0,48566.0,-0.3000025448675481,0.51961377298239,0.5,-0.35097143054008484,-0.5845184326171875,0.4723227620124817,0.0408441424369812,-0.01119282003492117,0.11468655616044998,0.037626996636390686,-0.40534883737564087,2.1986188888549805,-6.34621524810791,-8.8939208984375,1.4995238780975342,54758.0,51162.0,54016.0,52197.0,-0.29999491024331576,-0.5196181808098181,0.5
2.479,TAKEOFF,incipient,1.0,0.6230171322822571,0.006032807752490044,0.47594696283340454,0.007402006071060896,0.01468565035611391,0.11785152554512024,0.07385293394327164,1.7513680458068848,4.2054972648620605,0.7696839570999146,1.2363231182098389,-3.1609606742858887,52122.0,49983.0,53608.0,47859.0,0.6,0.0,0.5,-0.3385758101940155,0.5186173915863037,0.4711740016937256,0.005014390684664249,0.021048007532954216,0.11683763563632965,-0.23867186903953552,0.15446992218494415,1.7743843793869019,-0.06665996462106705,-4.337483882904053,1.5046244859695435,52065.0,52064.0,52753.0,48215.0,-0.3000025448675481,0.51961377298239,0.5,-0.3438112735748291,-0.5883293151855469,0.4832252860069275,0.04822788015007973,-0.013987468555569649,0.10878248512744904,-0.05698235705494881,-0.2911362648010254,2.235966444015503,-4.535721778869629,-9.288467407226562,0.3668595254421234,54613.0,51825.0,53764.0,52197.0,-0.29999491024331576,-0.5196181808098181,0.5
2.499,TAKEOFF,incipient,1.0,0.6230171322822571,0.006032807752490044,0.47594696283340454,0.0016934173181653023,0.014147029258310795,0.11319960653781891,0.034807607531547546,1.6814378499984741,4.212253093719482,-0.5748037695884705,5.819469928741455,-3.030404806137085,51853.0,49729.0,53790.0,47872.0,0.6,0.0,0.5,-0.3385758101940155,0.5186173915863037,0.4711740016937256,0.00450811255723238,0.02183486893773079,0.11481741815805435,-0.20097607374191284,0.21427425742149353,1.7980514764785767,3.8952176570892334,0.07338082045316696,0.15856163203716278,52065.0,52064.0,52753.0,48215.0,-0.3000025448675481,0.51961377298239,0.5,-0.3438112735748291,-0.5883293151855469,0.4832252860069275,0.04934830963611603,-0.01607324741780758,0.10524412244558334,-0.14586611092090607,-0.08936750143766403,2.1986114978790283,-4.397711753845215,-9.417069435119629,-0.5709853172302246,53846.0,51646.0,54618.0,52237.0,-0.29999491024331576,-0.5196181808098181,0.5
2.519,TAKEOFF,incipient,1.0,0.6230171322822571,0.006032807752490044,0.47594696283340454,-0.013531727716326714,0.0031574396416544914,0.10963638126850128,0.027909042313694954,1.5396888256072998,4.153110980987549,1.5495561361312866,5.319145202636719,-2.1492080688476562,52226.0,50819.0,53513.0,46948.0,0.6,0.0,0.5,-0.3407595157623291,0.5237496495246887,0.48303356766700745,-0.013190955854952335,0.040015481412410736,0.11877217888832092,-0.23394736647605896,0.27848953008651733,1.8555575609207153,2.454294204711914,4.021751880645752,0.2854766249656677,51661.0,52577.0,52756.0,47632.0,-0.3000025448675481,0.51961377298239,0.5,-0.3438112735748291,-0.5883293151855469,0.4832252860069275,0.04949205741286278,-0.01582181453704834,0.1041472926735878,-0.20876701176166534,0.019942978397011757,2.1769819259643555,-6.294783115386963,-10.10564136505127,-0.1535709649324417,53853.0,50996.0,54539.0,52676.0,-0.29999491024331576,-0.5196181808098181,0.5
2.539,TAKEOFF,incipient,1.0,0.6230171322822571,0.006032807752490044,0.47594696283340454,-0.013531727716326714,0.0031574396416544914,0.10963638126850128,0.12242307513952255,1.4835021495819092,4.117278575897217,2.6288466453552246,6.531571388244629,-3.1625819206237793,52262.0,49918.0,53489.0,47818.0,0.6,0.0,0.5,-0.3407595157623291,0.5237496495246887,0.48303356766700745,-0.014226697385311127,0.04087460786104202,0.11722113192081451,-0.1427372395992279,0.1976262629032135,1.841584324836731,6.039955139160156,1.3163925409317017,-2.055891990661621,52057.0,52112.0,52260.0,48276.0,-0.3000025448675481,0.51961377298239,0.5,-0.3438112735748291,-0.5883293151855469,0.4832252860069275,0.03202647715806961,-0.005037699360400438,0.09048822522163391,-0.4160718619823456,0.34997278451919556,2.193549394607544,-5.2330641746521,-9.764775276184082,0.144385427236557,53644.0,52178.0,55147.0,52117.0,-0.29999491024331576,-0.5196181808098181,0.5
