timestamp_sec,flight_state,fault_type,fault_motor_health,cf1_X,cf1_Y,cf1_Z,cf1_VelX,cf1_VelY,cf1_VelZ,cf1_Roll,cf1_Pitch,cf1_Yaw,cf1_GyroX,cf1_GyroY,cf1_GyroZ,cf1_Motor1,cf1_Motor2,cf1_Motor3,cf1_Motor4,cf1_targ_x,cf1_targ_y,cf1_targ_z,cf2_X,cf2_Y,cf2_Z,cf2_VelX,cf2_VelY,cf2_VelZ,cf2_Roll,cf2_Pitch,cf2_Yaw,cf2_GyroX,cf2_GyroY,cf2_GyroZ,cf2_Motor1,cf2_Motor2,cf2_Motor3,cf2_Motor4,cf2_targ_x,cf2_targ_y,cf2_targ_z,cf3_X,cf3_Y,cf3_Z,cf3_VelX,cf3_VelY,cf3_VelZ,cf3_Roll,cf3_Pitch,cf3_Yaw,cf3_GyroX,cf3_GyroY,cf3_GyroZ,cf3_Motor1,cf3_Motor2,cf3_Motor3,cf3_Motor4,cf3_targ_x,cf3_targ_y,cf3_targ_z
0.004,TAKEOFF,incipient,1.0,0.6013347506523132,0.006367159076035023,-0.0007366560166701674,-0.00952738244086504,0.01914302073419094,-0.0016442444175481796,0.03221861273050308,0.299878865480423,-1.6425044536590576,-0.004637813661247492,0.059893324971199036,0.14370398223400116,0.0,0.0,0.0,0.0,-0.5614621950611772,-0.21156607364387278,0.5,-0.3792044520378113,0.5282006859779358,0.0026276579592376947,0.022059444338083267,-0.016139155253767967,-0.002771889790892601,0.7415638566017151,-1.5689634084701538,3.960031270980835,-0.2578252851963043,0.286129355430603,-0.17403820157051086,0.0,0.0,0.0,0.0,0.46501108991612755,-0.3791631393674959,0.5,-0.38416779041290283,-0.479876309633255,0.005995913874357939,0.01863117702305317,-0.013908877037465572,-0.002699021715670824,-0.06304091960191727,0.24393019080162048,-0.06341834366321564,-0.0964697077870369,0.1286943107843399,-0.16690462827682495,0.0,0.0,0.0,0.0,0.09420848426353821,0.5925578127851886,0.5
0.02,TAKEOFF,incipient,1.0,0.6013347506523132,0.006367159076035023,-0.0007366560166701674,-0.00952738244086504,0.01914302073419094,-0.0016442444175481796,0.03221861273050308,0.299878865480423,-1.6425044536590576,-0.004637813661247492,0.059893324971199036,0.14370398223400116,0.0,0.0,0.0,0.0,0.6,0.0,0.5,-0.3792044520378113,0.5282006859779358,0.0026276579592376947,0.022059444338083267,-0.016139155253767967,-0.002771889790892601,0.7415638566017151,-1.5689634084701538,3.960031270980835,-0.2578252851963043,0.286129355430603,-0.17403820157051086,0.0,0.0,0.0,0.0,-0.3000025448675481,0.51961377298239,0.5,-0.38416779041290283,-0.479876309633255,0.005995913874357939,0.006128756329417229,0.007502511143684387,-0.003237158292904496,-0.04656790941953659,0.1674678772687912,-0.11903125047683716,0.0925917699933052,-0.27235010266304016,0.14538638293743134,0.0,0.0,0.0,0.0,-0.29999491024331576,-0.5196181808098181,0.5
0.038,TAKEOFF,incipient,1.0,0.6013347506523132,0.006367159076035023,-0.0007366560166701674,-0.00952738244086504,0.01914302073419094,-0.0016442444175481796,0.03221861273050308,0.299878865480423,-1.6425044536590576,-0.004637813661247492,0.059893324971199036,0.14370398223400116,0.0,0.0,0.0,0.0,-0.552130943620869,-0.23484339696131284,0.5,-0.3792044520378113,0.5282006859779358,0.0026276579592376947,0.022059444338083267,-0.016139155253767967,-0.002771889790892601,0.7415638566017151,-1.5689634084701538,3.960031270980835,-0.2578252851963043,0.286129355430603,-0.17403820157051086,0.0,0.0,0.0,0.0,0.4804492054161317,-0.35940027965349125,0.5,-0.38416779041290283,-0.479876309633255,0.005995913874357939,0.005945152603089809,0.007861047051846981,-0.0033315487671643496,-0.20197993516921997,0.30209487676620483,-0.12924179434776306,0.1894507110118866,-0.027577746659517288,-0.013355225324630737,0.0,0.0,0.0,0.0,0.06936466352859125,0.5959769655394118,0.5
0.058,TAKEOFF,incipient,1.0,0.6013347506523132,0.006367159076035023,-0.0007366560166701674,-0.00952738244086504,0.01914302073419094,-0.0016442444175481796,0.03221861273050308,0.299878865480423,-1.6425044536590576,-0.004637813661247492,0.059893324971199036,0.14370398223400116,0.0,0.0,0.0,0.0,-0.5501483956823465,-0.2394509192468058,0.5,-0.3792044520378113,0.5282006859779358,0.0026276579592376947,0.022059444338083267,-0.016139155253767967,-0.002771889790892601,0.7415638566017151,-1.5689634084701538,3.960031270980835,-0.2578252851963043,0.286129355430603,-0.17403820157051086,0.0,0.0,0.0,0.0,0.4834369468981804,-0.3553712402175588,0.5,-0.38416779041290283,-0.479876309633255,0.005995913874357939,0.005819943267852068,0.0080946646630764,-0.0032237586565315723,-0.20137543976306915,0.3025985658168793,-0.1278332769870758,-0.09247518330812454,-0.005838158540427685,-0.0064930240623652935,0.0,0.0,0.0,0.0,0.06437996505072757,0.5965360174373942,0.5
0.078,TAKEOFF,incipient,1.0,0.6013347506523132,0.006367159076035023,-0.0007366560166701674,-0.00952738244086504,0.01914302073419094,-0.0016442444175481796,0.03221861273050308,0.299878865480423,-1.6425044536590576,-0.004637813661247492,0.059893324971199036,0.14370398223400116,0.0,0.0,0.0,0.0,-0.5481273988536396,-0.2440417067346134,0.5,-0.3792044520378113,0.5282006859779358,0.0026276579592376947,0.022059444338083267,-0.016139155253767967,-0.002771889790892601,0.7415638566017151,-1.5689634084701538,3.960031270980835,-0.2578252851963043,0.286129355430603,-0.17403820157051086,0.0,0.0,0.0,0.0,0.48639090183422046,-0.3513173645194523,0.5,-0.38416779041290283,-0.479876309633255,0.005995913874357939,0.02296684868633747,-0.006884121801704168,-0.0004508819547481835,-0.027775004506111145,0.0980222150683403,-0.03532607480883598,-0.11096774786710739,0.08334092050790787,0.19717372953891754,0.0,0.0,0.0,0.0,0.05939076717192821,0.5970533784970401,0.5
0.098,TAKEOFF,incipient,1.0,0.6013347506523132,0.006367159076035023,-0.0007366560166701674,-0.00952738244086504,0.01914302073419094,-0.0016442444175481796,0.03221861273050308,0.299878865480423,-1.6425044536590576,-0.004637813661247492,0.059893324971199036,0.14370398223400116,0.0,0.0,0.0,0.0,-0.5460680943786123,-0.2486154385827858,0.5,-0.3792044520378113,0.5282006859779358,0.0026276579592376947,0.022059444338083267,-0.016139155253767967,-0.002771889790892601,0.7415638566017151,-1.5689634084701538,3.960031270980835,-0.2578252851963043,0.286129355430603,-0.17403820157051086,0.0,0.0,0.0,0.0,0.4893108637776097,-0.34723893587731414,0.5,-0.38416779041290283,-0.479876309633255,0.005995913874357939,0.031446672976017,-0.014608063735067844,0.0015362744452431798,-0.027775004506111145,0.0980222150683403,-0.03532607480883598,-0.11096774786710739,0.08334092050790787,0.19717372953891754,0.0,0.0,0.0,0.0,0.05439741857833466,0.5975290125609077,0.5
0.118,TAKEOFF,incipient,1.0,0.6013347506523132,0.006367159076035023,-0.0007366560166701674,-0.00952738244086504,0.01914302073419094,-0.0016442444175481796,0.03221861273050308,0.299878865480423,-1.6425044536590576,-0.004637813661247492,0.059893324971199036,0.14370398223400116,0.0,0.0,0.0,0.0,-0.5439706261783815,-0.2531717951413614,0.5,-0.3792044520378113,0.5282006859779358,0.0026276579592376947,0.022059444338083267,-0.016139155253767967,-0.002771889790892601,0.7415638566017151,-1.5689634084701538,3.960031270980835,-0.2578252851963043,0.286129355430603,-0.17403820157051086,0.0,0.0,0.0,0.0,0.49219662865741565,-0.34313623932524834,0.5,-0.38416779041290283,-0.479876309633255,0.005995913874357939,0.0353589691221714,-0.018740316852927208,0.003131643170490861,-0.002254948252812028,0.0717216283082962,0.0031086138915270567,-0.050973717123270035,-0.21109555661678314,0.11516647040843964,0.0,0.0,0.0,0.0,0.049400268246174474,0.5979628863877807,0.5
0.138,TAKEOFF,incipient,1.0,0.6013347506523132,0.006367159076035023,-0.0007366560166701674,-0.00952738244086504,0.01914302073419094,-0.0016442444175481796,0.03221861273050308,0.299878865480423,-1.6425044536590576,-0.004637813661247492,0.059893324971199036,0.14370398223400116,0.0,0.0,0.0,0.0,-0.541835140841259,-0.25771045797470654,0.5,-0.3792044520378113,0.5282006859779358,0.0026276579592376947,0.022059444338083267,-0.016139155253767967,-0.002771889790892601,0.7415638566017151,-1.5689634084701538,3.960031270980835,-0.2578252851963043,0.286129355430603,-0.17403820157051086,0.0,0.0,0.0,0.0,0.4950479947926776,-0.33900956159339973,0.5,-0.38004380464553833,-0.4815451502799988,0.005874844267964363,0.03647216409444809,-0.020451031625270844,0.0044302199967205524,0.007492200005799532,0.07211583107709885,0.026863092556595802,-0.14959587156772614,0.1315132975578308,0.22938106954097748,0.0,0.0,0.0,0.0,0.044399665417371975,0.5983549696549911,0.5
0.159,TAKEOFF,incipient,1.0,0.6013347506523132,0.006367159076035023,-0.0007366560166701674,-0.00952738244086504,0.01914302073419094,-0.0016442444175481796,0.03221861273050308,0.299878865480423,-1.6425044536590576,-0.004637813661247492,0.059893324971199036,0.14370398223400116,0.0,0.0,0.0,0.0,-0.5396617876125063,-0.2622311098837705,0.5,-0.3792044520378113,0.5282006859779358,0.0026276579592376947,0.022059444338083267,-0.016139155253767967,-0.002771889790892601,0.7415638566017151,-1.5689634084701538,3.960031270980835,-0.2578252851963043,0.286129355430603,-0.17403820157051086,0.0,0.0,0.0,0.0,0.4978647629065018,-0.334859191087915,0.5,-0.38004380464553833,-0.4815451502799988,0.005874844267964363,0.03005763329565525,-0.02125362679362297,0.015341006219387054,0.009863074868917465,0.13101811707019806,-0.007284708321094513,0.12028903514146805,0.17717373371124268,0.0900215357542038,0.0,0.0,0.0,0.0,0.03939595957514028,0.5987052349605387,0.5
0.178,TAKEOFF,incipient,1.0,0.5980550646781921,0.009394263848662376,-0.0009318857337348163,0.014265715144574642,-0.019541136920452118,0.0005411864258348942,0.3464089632034302,0.0638824850320816,-1.5206668376922607,0.03316241130232811,0.17080210149288177,-0.025729995220899582,0.0,0.0,0.0,0.0,-0.5374507183839043,-0.2667334349282541,0.5,-0.38098934292793274,0.5299115777015686,0.002810787409543991,0.00670027919113636,-0.0015943790785968304,0.0004657749377656728,0.6055513024330139,-1.4181081056594849,3.976175308227539,-0.11318235099315643,0.30757272243499756,-0.03645575791597366,0.0,0.0,0.0,0.0,0.5006467361399884,-0.3306854178707867,0.5,-0.38004380464553833,-0.4815451502799988,0.005874844267964363,0.02757127769291401,-0.019875086843967438,0.022613221779465675,-0.004069054964929819,0.15576408803462982,-0.04356575757265091,0.12774904072284698,-0.2514510154724121,-0.06795031577348709,0.0,0.0,0.0,0.0,0.03438950041955658,0.5990136578250059,0.5
0.198,TAKEOFF,incipient,1.0,0.6016790270805359,0.005763147957623005,-0.0005604727775789797,0.01395943108946085,-0.006984896492213011,-8.79182989592664e-05,0.24923287332057953,0.09141165763139725,-1.5288480520248413,0.23259952664375305,0.12225012481212616,-0.18293023109436035,0.0,0.0,0.0,0.0,-0.535202087683138,-0.2712171184486896,0.5,-0.38098934292793274,0.5299115777015686,0.002810787409543991,0.0028771136421710253,-0.0011109651532024145,-0.0035934289917349815,0.6032801270484924,-1.4002195596694946,3.9350531101226807,-0.12175892293453217,-0.06792242079973221,0.25498634576797485,44077.0,39462.0,42366.0,40364.0,0.5033937200659899,-0.3264885336395809,0.5,-0.38004380464553833,-0.4815451502799988,0.005874844267964363,0.026447610929608345,-0.01837436854839325,0.017305977642536163,-0.032864395529031754,0.17911988496780396,0.01703609898686409,0.016309745609760284,0.2544975280761719,0.07835400104522705,41411.0,41053.0,40409.0,40850.0,0.029380637843122243,0.5992802166932688,0.5
0.219,TAKEOFF,incipient,1.0,0.6016790270805359,0.005763147957623005,-0.0005604727775789797,0.01078434195369482,0.001183499931357801,0.001436535152606666,0.1882699728012085,0.11986367404460907,-1.477708101272583,-0.16698840260505676,0.03005569986999035,0.2475217580795288,41200.0,41888.0,40543.0,42403.0,-0.5329160526629968,-0.2756818470884327,0.5,-0.38098934292793274,0.5299115777015686,0.002810787409543991,0.00327140255831182,-0.0006113853305578232,-0.0036440836265683174,0.6009353995323181,-1.3994611501693726,3.9339799880981445,-0.02942550554871559,0.3017277717590332,-0.6457245945930481,45170.0,40117.0,43326.0,41332.0,0.5061055227026989,-0.32226883170705156,0.5,-0.38569146394729614,-0.47843101620674133,0.006719620432704687,0.02503782883286476,-0.01668044738471508,0.013543019071221352,-0.032864395529031754,0.17911988496780396,0.01703609898686409,0.016309745609760284,0.2544975280761719,0.07835400104522705,41892.0,41443.0,40912.0,41513.0,0.024369721906309434,0.5995048929360036,0.5
0.239,TAKEOFF,incipient,1.0,0.6016790270805359,0.005763147957623005,-0.0005604727775789797,0.027924347668886185,-0.002189827151596546,0.0005101747810840607,0.2148834764957428,-0.005431714002043009,-1.5157654285430908,0.22714902460575104,0.29001104831695557,0.578109085559845,42027.0,42542.0,40841.0,43064.0,-0.530592773090391,-0.28012730881556136,0.5,-0.3787723779678345,0.5282366871833801,0.00216754456050694,0.005789197050035,-0.0012032055528834462,-0.0037779666017740965,0.4145885109901428,-1.184058666229248,3.9998745918273926,-0.37762489914894104,-0.17716847360134125,1.884443998336792,45194.0,40100.0,45306.0,41832.0,0.5087819545270655,-0.3180266069806408,0.5,-0.38569146394729614,-0.47843101620674133,0.006719620432704687,0.005326821003109217,0.0003165394882671535,0.0022100014612078667,-0.16902020573616028,0.3219248056411743,0.03845563530921936,0.36969348788261414,0.43811655044555664,-0.8917796611785889,42738.0,42409.0,43337.0,42624.0,0.019357102813095998,0.5996876708509882,0.5
0.258,TAKEOFF,incipient,1.0,0.6059129238128662,0.008362536318600178,-0.0007781620952300727,0.016508879140019417,-0.01863432489335537,-0.00027437222888693213,0.3271789252758026,0.07486020028591156,-1.5790362358093262,-0.5995754599571228,-1.358853816986084,1.5194306373596191,42609.0,42797.0,41346.0,44189.0,-0.5282324113351862,-0.2845531929446841,0.5,-0.3787723779678345,0.5282366871833801,0.00216754456050694,-0.013690255582332611,0.01648133620619774,0.00604391610249877,0.4133487343788147,-1.1797302961349487,4.00346565246582,-1.2776168584823608,-0.3661040961742401,1.4413188695907593,46432.0,40924.0,44925.0,43019.0,0.5114228284880432,-0.3137621559418687,0.5,-0.38569146394729614,-0.47843101620674133,0.006719620432704687,0.005326821003109217,0.0003165394882671535,0.0022100014612078667,-0.1672520488500595,0.3224496841430664,0.03814293071627617,-0.5171818137168884,-0.18641427159309387,0.5614598393440247,43671.0,43772.0,44398.0,43699.0,0.014343130886490361,0.5998285376642003,0.5
0.278,TAKEOFF,incipient,1.0,0.6059129238128662,0.008362536318600178,-0.0007781620952300727,0.009671729989349842,-0.004163643810898066,-0.0007439021137543023,0.22364772856235504,0.12322229146957397,-1.5061575174331665,-1.2149869203567505,-0.21214711666107178,-0.3583371043205261,42040.0,45309.0,44213.0,43170.0,-0.5258351323588559,-0.28895919015865273,0.5,-0.3787723779678345,0.5282366871833801,0.00216754456050694,-0.009553040377795696,0.015354029834270477,0.005709363147616386,0.41582977771759033,-1.193086862564087,3.8693668842315674,-0.6966400146484375,0.4252888560295105,-13.95925521850586,45900.0,43196.0,45248.0,43461.0,0.5140279600196606,-0.3094757766256128,0.5,-0.38569146394729614,-0.47843101620674133,0.006719620432704687,0.003130993340164423,0.00145337067078799,0.0012320191599428654,-0.16946260631084442,0.3192019462585449,0.029633156955242157,0.21652348339557648,0.5757736563682556,-8.231996536254883,43942.0,45814.0,45939.0,45999.0,0.009328156544048045,0.5999274835307095,0.5
0.298,TAKEOFF,incipient,1.0,0.6059129238128662,0.008362536318600178,-0.0007781620952300727,0.009231461212038994,-0.004926874302327633,0.0011194981634616852,0.2294049859046936,0.11005936563014984,-1.5605005025863647,-3.3084969520568848,1.8056294918060303,-9.498010635375977,42916.0,44813.0,42984.0,46237.0,-0.5234011037029523,-0.29334499253018,0.5,-0.3787723779678345,0.5282366871833801,0.00216754456050694,-0.0013468420365825295,0.01521253865212202,-0.0005970679922029376,0.41582977771759033,-1.193086862564087,3.8693668842315674,-0.6966400146484375,0.4252888560295105,-13.95925521850586,46280.0,42113.0,43536.0,47968.0,0.5165971670539213,-0.3051677685992787,0.5,-0.38569146394729614,-0.47843101620674133,0.006719620432704687,-0.022160332649946213,0.022190777584910393,-0.0061995950527489185,-0.34385010600090027,0.5243302583694458,-0.07569688558578491,-0.8543341159820557,-0.40307751297950745,17.285594940185547,43773.0,46290.0,49312.0,44979.0,0.004312530273381636,0.5999845015353656,0.5
0.318,TAKEOFF,incipient,1.0,0.6059129238128662,0.008362536318600178,-0.0007781620952300727,0.0032021196093410254,-0.010347199626266956,-0.0008705100044608116,0.24009202420711517,0.1457499861717224,-1.766243577003479,8.314213752746582,-7.090409278869629,-20.104049682617188,44215.0,49256.0,41769.0,43182.0,-0.5209304954773969,-0.2977102935433602,0.5,-0.3831120431423187,0.5331961512565613,0.0022465302608907223,0.00313751888461411,0.014037351123988628,-0.0027864137664437294,0.3435549736022949,-1.2351021766662598,2.539363145828247,-1.236910343170166,0.9229952692985535,-28.50461769104004,44924.0,46081.0,42665.0,48150.0,0.5191302700335279,-0.30083843294186396,0.5,-0.38799944519996643,-0.47694098949432373,0.004694296978414059,-0.029122985899448395,0.02278611995279789,-0.011775808408856392,-0.3456888496875763,0.566800057888031,0.1027025505900383,-1.356626272201538,1.9863038063049316,-14.31116008758545,46318.0,46271.0,46345.0,48111.0,-0.0007033973923341793,0.599999587693282,0.5
0.338,TAKEOFF,incipient,1.0,0.6032976508140564,0.008631911128759384,-0.0010055741295218468,-0.004205615259706974,0.0013604277046397328,0.0027968112844973803,0.20132037997245789,0.19100996851921082,-2.0918657779693604,3.0273897647857666,2.3000540733337402,-35.992244720458984,42991.0,49638.0,40770.0,46212.0,-0.5184234803485924,-0.3020547881150911,0.5,-0.3831120431423187,0.5331961512565613,0.0022465302608907223,0.004750691819936037,0.0171634741127491,0.0013999580405652523,0.3241412341594696,-1.252562403678894,2.0414862632751465,-0.7938030362129211,-0.7697606682777405,-28.687898635864258,44107.0,46676.0,46226.0,46273.0,0.5216270919244309,-0.29648807222291645,0.5,-0.38799944519996643,-0.47694098949432373,0.004694296978414059,-0.030026834458112717,0.02211984619498253,-0.013770717196166515,-0.30898404121398926,0.5467865467071533,-0.1073523685336113,-0.9578185677528381,-3.580454111099243,-9.906646728515625,46316.0,52069.0,45770.0,44005.0,-0.005719275898860755,0.5999727409501141,0.5
0.358,TAKEOFF,incipient,1.0,0.6032976508140564,0.008631911128759384,-0.0010055741295218468,0.006929138675332069,-0.012210289016366005,0.004595170263200998,0.33176642656326294,0.11225726455450058,-3.03035306930542,-2.125380039215088,0.3049631118774414,-43.316856384277344,41239.0,47109.0,40627.0,51268.0,-0.5158802335273548,-0.30637817261639544,0.5,-0.3831120431423187,0.5331961512565613,0.0022465302608907223,0.009335038252174854,0.01707945205271244,0.006307903677225113,0.3241412341594696,-1.252562403678894,2.0414862632751465,-0.7938030362129211,-0.7697606682777405,-28.687898635864258,43974.0,44716.0,45954.0,49358.0,0.5240874582282014,-0.2921169904813879,0.5,-0.38799944519996643,-0.47694098949432373,0.004694296978414059,-0.03091438300907612,0.0215744748711586,-0.016229966655373573,-0.2883889973163605,0.5471602082252502,-0.3475326597690582,-0.531892716884613,0.5976197719573975,-23.658851623535156,46316.0,52069.0,45770.0,44005.0,-0.01073475469539509,0.5999039631821327,0.5
0.378,TAKEOFF,incipient,1.0,0.6032976508140564,0.008631911128759384,-0.0010055741295218468,0.006441629957407713,-0.01335078850388527,0.007263951003551483,0.41788449883461,0.05670721456408501,-3.9259989261627197,-8.04319953918457,4.735776424407959,-55.826904296875,38628.0,44663.0,41192.0,54985.0,-0.5133009327566687,-0.3106801448936413,0.5,-0.3831120431423187,0.5331961512565613,0.0022465302608907223,0.03022894635796547,-0.006244281772524118,-0.0019403336336836219,0.5077142119407654,-1.3971542119979858,0.9387447834014893,-2.3039865493774414,0.35832613706588745,-17.723182678222656,46729.0,46039.0,42562.0,50120.0,0.5265111969942264,-0.2877254932043853,0.5,-0.38799944519996643,-0.47694098949432373,0.004694296978414059,-0.03158140555024147,0.021137595176696777,-0.022280069068074226,-0.26569241285324097,0.5357683897018433,-0.8323761224746704,0.42772287130355835,2.832852840423584,-20.531282424926758,45698.0,49612.0,47660.0,49288.0,-0.015749483259069202,0.5997932591960935,0.5
0.398,TAKEOFF,incipient,1.0,0.6032976508140564,0.008631911128759384,-0.0010055741295218468,0.0025182964745908976,-0.013356354087591171,0.0037832295056432486,0.36539357900619507,0.13706661760807037,-5.08027458190918,-5.365061283111572,-5.008617401123047,-56.57019805908203,39038.0,50432.0,40025.0,51992.0,-0.5106857582992644,-0.3149604042896586,0.5,-0.3831120431423187,0.5331961512565613,0.0022465302608907223,0.035016827285289764,-0.007893206551671028,-0.0015872818185016513,0.4644489288330078,-1.3999930620193481,0.5854823589324951,2.260223388671875,4.846253395080566,-16.518264770507812,45409.0,48823.0,41836.0,50132.0,0.5288981388317266,-0.2833138873058212,0.5,-0.38799944519996643,-0.47694098949432373,0.004694296978414059,-0.00489372992888093,0.010016091167926788,-0.0034150686115026474,-0.15339995920658112,0.29493460059165955,-1.2126902341842651,0.5316948890686035,-4.539491176605225,-1.1970793008804321,46573.0,50156.0,47916.0,47491.0,-0.02076311111944755,0.5996406367289007,0.5
0.418,TAKEOFF,incipient,1.0,0.6032976508140564,0.008631911128759384,-0.0010055741295218468,-0.007462521083652973,0.00507186958566308,0.006133904680609703,0.2921299636363983,0.18745757639408112,-6.016430854797363,4.247704982757568,2.0212466716766357,-23.058086395263672,41403.0,50573.0,42455.0,49753.0,-0.508034892925021,-0.3192186516647522,0.5,-0.37830057740211487,0.5316444635391235,0.0031928643584251404,0.0412546843290329,-0.00767597695812583,0.004293195437639952,0.3683559000492096,-1.2707633972167969,0.3408251404762268,-1.4271769523620605,-1.841002106666565,-13.121944427490234,43635.0,49603.0,44529.0,48866.0,0.5312481169215939,-0.2788824811049638,0.5,-0.3873595595359802,-0.47786569595336914,0.004825976677238941,-0.01576945371925831,0.018688254058361053,-0.006072914227843285,-0.23852068185806274,0.3997965455055237,-1.2949368953704834,6.813838958740234,6.753889083862305,2.8876702785491943,45867.0,50355.0,50336.0,46833.0,-0.025775287883020772,0.5994461064470662,0.5
0.438,TAKEOFF,incipient,1.0,0.5974428653717041,0.011642102152109146,0.00020035580382682383,-0.010552436113357544,0.01252115797251463,0.009755037724971771,0.23623643815517426,0.18969283998012543,-6.2686614990234375,-6.252427101135254,-6.593839168548584,6.744136810302734,42589.0,48966.0,46005.0,48486.0,-0.5053485218981916,-0.32345458941760746,0.5,-0.37830057740211487,0.5316444635391235,0.0031928643584251404,0.042673271149396896,-0.005769103765487671,0.004225061275064945,0.3683559000492096,-1.2707633972167969,0.3408251404762268,-1.4271769523620605,-1.841002106666565,-13.121944427490234,47201.0,48458.0,42230.0,49159.0,0.5335609670280508,-0.27443158430488884,0.5,-0.3873595595359802,-0.47786569595336914,0.004825976677238941,-0.01778424344956875,0.021151529625058174,-0.009437816217541695,-0.16885758936405182,0.30926746129989624,-1.2991642951965332,-0.7299076914787292,0.015238803811371326,3.997316598892212,45867.0,50355.0,50336.0,46833.0,-0.03078566325769409,0.5992096819459645,0.5
0.458,TAKEOFF,incipient,1.0,0.5974428653717041,0.011642102152109146,0.00020035580382682383,-0.011382214725017548,0.011881445534527302,0.010657339356839657,0.2079615443944931,0.234566792845726,-6.08546257019043,7.603286266326904,1.5496689081192017,11.642904281616211,44838.0,50772.0,45454.0,46077.0,-0.5026268329644559,-0.3276679215060898,0.5,-0.37830057740211487,0.5316444635391235,0.0031928643584251404,0.04578176885843277,-0.005938503425568342,0.003546386491507292,0.42127519845962524,-1.2883673906326294,0.10636922717094421,-14.265177726745605,0.9030129313468933,-12.27863597869873,48723.0,51967.0,40782.0,46093.0,0.5358365275101282,-0.2699615079708357,0.5,-0.3873595595359802,-0.47786569595336914,0.004825976677238941,-0.013309614732861519,0.021627847105264664,0.00013171081081964076,-0.14802920818328857,0.2573828399181366,-1.1886670589447021,-6.444553852081299,-7.348342418670654,11.24842357635498,45940.0,49179.0,50858.0,48850.0,-0.03579388707726857,0.5989313797488822,0.5
0.478,TAKEOFF,incipient,1.0,0.5974428653717041,0.011642102152109146,0.00020035580382682383,-0.01363626029342413,0.018955223262310028,0.014037505723536015,0.22831203043460846,0.1858079880475998,-5.795447826385498,5.572322368621826,5.696895122528076,5.3893914222717285,46254.0,49070.0,43917.0,48845.0,-0.49987001633779937,-0.3318583534679339,0.5,-0.37830057740211487,0.5316444635391235,0.0031928643584251404,0.04446883127093315,-0.0029816627502441406,0.018950430676341057,0.3324229121208191,-1.1220390796661377,-0.3633282780647278,7.805532932281494,-22.358421325683594,-7.625881671905518,45959.0,51108.0,44877.0,48199.0,0.5380746393329626,-0.265472564508467,0.5,-0.3873595595359802,-0.47786569595336914,0.004825976677238941,-0.014041641727089882,0.021591508761048317,-0.0007046071114018559,-0.25944316387176514,0.38645318150520325,-0.9919602870941162,12.845593452453613,13.904192924499512,9.650727272033691,47465.0,47644.0,51006.0,50447.0,-0.04079960932591363,0.5986112193058637,0.5
0.498,TAKEOFF,incipient,1.0,0.5974428653717041,0.011642102152109146,0.00020035580382682383,-0.01448444090783596,0.022917216643691063,0.018780546262860298,0.22818344831466675,0.1232219710946083,-5.620778560638428,1.6369009017944336,1.6469168663024902,5.828091144561768,45214.0,48224.0,45548.0,49928.0,-0.49707826468721944,-0.33602559244132363,0.5,-0.37830057740211487,0.5316444635391235,0.0031928643584251404,0.048569682985544205,-0.004130985122174025,0.02048591896891594,0.3324229121208191,-1.1220390796661377,-0.3633282780647278,7.805532932281494,-22.358421325683594,-7.625881671905518,45757.0,46408.0,46925.0,51834.0,0.5402751460789105,-0.2609650676420352,0.5,-0.3873595595359802,-0.47786569595336914,0.004825976677238941,-0.00933257769793272,0.018631745129823685,0.0026191140059381723,-0.16018331050872803,0.10994236916303635,-0.7672664523124695,-8.093700408935547,-7.683463096618652,6.7166666984558105,47465.0,47644.0,51006.0,50447.0,-0.04580248016262903,0.5982492229923512,0.5
0.519,TAKEOFF,incipient,1.0,0.5974428653717041,0.011642102152109146,0.00020035580382682383,-0.015385974198579788,0.025619681924581528,0.024393120780587196,0.24912700057029724,0.0969567596912384,-5.479340553283691,-4.1001362800598145,-2.541985273361206,2.9551773071289062,43441.0,49462.0,47294.0,49300.0,-0.49425177312325985,-0.34016934718535946,0.5,-0.376723974943161,0.533368706703186,0.00444385688751936,0.05153194069862366,-0.0053686583414673805,0.0232517309486866,0.31473806500434875,-0.7960860133171082,-0.500756025314331,0.8545907735824585,-23.18914031982422,1.2641569375991821,48331.0,49617.0,47655.0,45743.0,0.5424378939584796,-0.2564393323924572,0.5,-0.3862612247467041,-0.4770619869232178,0.004634546115994453,-0.009854195639491081,0.02186703123152256,0.004214763641357422,-0.2166786640882492,0.17280197143554688,-0.5928885340690613,8.505830764770508,2.8575096130371094,10.182049751281738,49009.0,49551.0,50217.0,48890.0,-0.0508021499456946,0.5978454161076215,0.5
0.539,TAKEOFF,incipient,1.0,0.5974428653717041,0.011642102152109146,0.00020035580382682383,-0.01579947955906391,0.024878356605768204,0.019113317131996155,0.1684064120054245,0.16487634181976318,-5.423783302307129,-7.8982343673706055,-5.830896377563477,6.3383307456970215,44274.0,49199.0,47672.0,49820.0,-0.4913907391843749,-0.3442893281004127,0.5,-0.376723974943161,0.533368706703186,0.00444385688751936,0.05316351354122162,-0.006636636797338724,0.034406572580337524,0.36889687180519104,-0.35283350944519043,-0.46505388617515564,5.6686506271362305,-8.023038864135742,4.970056056976318,50580.0,49396.0,47268.0,45543.0,0.5445627318210784,-0.2518956750552979,0.5,-0.3862612247467041,-0.4770619869232178,0.004634546115994453,-0.010407383553683758,0.022440413013100624,0.0028188712894916534,0.01949850656092167,0.16127699613571167,-0.40224358439445496,-0.6735470294952393,-2.5131001472473145,6.990204811096191,49868.0,50450.0,50174.0,48197.0,-0.05579826925710611,0.5973998268730176,0.5
0.559,TAKEOFF,incipient,1.0,0.5958788990974426,0.015764866024255753,0.004018599167466164,-0.016513293609023094,0.024490876123309135,0.021133601665496826,0.046714745461940765,0.25858160853385925,-5.258637428283691,0.09180982410907745,-6.675955295562744,15.508195877075195,45040.0,51025.0,48655.0,47226.0,-0.488495362823124,-0.34838524724836506,0.5,-0.376723974943161,0.533368706703186,0.00444385688751936,0.05979575216770172,-0.0027889434713870287,0.042480431497097015,1.3175668716430664,0.332804411649704,-0.23753155767917633,31.94659996032715,-19.942594528198242,7.300023555755615,50685.0,50387.0,47404.0,43698.0,0.546649511165578,-0.24733441317866506,0.5,-0.3862612247467041,-0.4770619869232178,0.004634546115994453,-0.011938151903450489,0.02324921451508999,0.010627448558807373,-0.0344407819211483,0.31818529963493347,-0.2786576449871063,5.85093879699707,-4.628846168518066,6.984004020690918,51148.0,49022.0,49735.0,50695.0,-0.060790488926995484,0.5969124864299764,0.5
0.578,TAKEOFF,incipient,1.0,0.5958788990974426,0.015764866024255753,0.004018599167466164,-0.017494961619377136,0.024456821382045746,0.021807581186294556,-0.0695391371846199,0.38873374462127686,-4.903172492980957,14.990161895751953,8.955582618713379,26.991214752197266,49814.0,49407.0,46052.0,47978.0,-0.48556584639219696,-0.3524568183727325,0.5,-0.376723974943161,0.533368706703186,0.00444385688751936,0.06085633113980293,-0.005208395887166262,0.05882909521460533,1.7768478393554688,0.8684760332107544,0.0527503676712513,17.10118293762207,-15.252006530761719,13.508478164672852,51851.0,51114.0,45778.0,44473.0,0.5486980861506918,-0.2427558655410162,0.5,-0.3862612247467041,-0.4770619869232178,0.004634546115994453,0.0039242906495928764,0.010653316043317318,0.015415680594742298,0.2320893108844757,0.08084326237440109,-0.08249947428703308,1.1513103246688843,21.524002075195312,8.035764694213867,50330.0,47822.0,51253.0,51887.0,-0.06577846005803362,0.5963834288378523,0.5
0.598,TAKEOFF,incipient,1.0,0.5958788990974426,0.015764866024255753,0.004018599167466164,-0.018697049468755722,0.02456870675086975,0.022351844236254692,0.23571933805942535,0.2118707150220871,-4.358662128448486,11.003830909729004,15.107454299926758,30.151119232177734,49243.0,47791.0,48030.0,49419.0,-0.48260239463027255,-0.3565037569186707,0.5,-0.376723974943161,0.533368706703186,0.00444385688751936,0.035946737974882126,0.008775174617767334,0.06644265353679657,1.8779337406158447,1.2896865606307983,0.3553917407989502,1.7036323547363281,-24.839923858642578,15.355243682861328,49299.0,48905.0,49865.0,46532.0,0.5507083136051679,-0.2381603521288798,0.5,-0.3862612247467041,-0.4770619869232178,0.004634546115994453,0.004048504866659641,0.009893118403851986,0.01934588886797428,0.05199311301112175,-0.3217147886753082,0.07298854738473892,-15.798827171325684,10.900834083557129,6.045598030090332,50330.0,47822.0,51253.0,51887.0,-0.0707618340498142,0.5958126910715368,0.5
0.619,TAKEOFF,incipient,1.0,0.5958788990974426,0.015764866024255753,0.004018599167466164,-0.019241230562329292,0.02363988757133484,0.01504543423652649,0.2906723916530609,0.05698096379637718,-3.780355453491211,-15.336902618408203,-16.486583709716797,25.694425582885742,45733.0,49693.0,51738.0,48379.0,-0.47960521464770894,-0.3605257800528625,0.5,-0.37077537178993225,0.5365803837776184,0.008040908724069595,0.03915208950638771,-0.0030406699515879154,0.0758160874247551,2.0103366374969482,1.8822602033615112,0.6015409827232361,4.470841884613037,-35.07675552368164,8.865992546081543,48478.0,50849.0,50359.0,45340.0,0.5526800530377945,-0.23354819411449224,0.5,-0.3806106448173523,-0.4799351096153259,0.007153979502618313,-0.010515221394598484,0.03986920416355133,0.02524516172707081,-0.06308458000421524,-0.5244407653808594,0.24508480727672577,11.999728202819824,-6.903954982757568,6.383784770965576,52045.0,51676.0,50504.0,48794.0,-0.0757402626232168,0.5952003130188744,0.5
0.639,TAKEOFF,incipient,1.0,0.6043216586112976,0.015887662768363953,-0.0010418245801702142,0.021572448313236237,0.00444199051707983,-0.007585016544908285,0.12644711136817932,0.0828227773308754,-3.3610124588012695,13.202927589416504,4.359041213989258,17.35776710510254,53052.0,51751.0,45231.0,47827.0,-0.4765745159120697,-0.3645226066832843,0.5,-0.37077537178993225,0.5365803837776184,0.008040908724069595,0.028935082256793976,-0.006785344798117876,0.08381400257349014,2.0103366374969482,1.8822602033615112,0.6015409827232361,4.470841884613037,-35.07675552368164,8.865992546081543,51122.0,51082.0,48036.0,45162.0,0.5546131666472196,-0.22891971383335136,0.5,-0.3806106448173523,-0.4799351096153259,0.007153979502618313,-0.009446886368095875,0.040764812380075455,0.04197033494710922,0.0183576587587595,-0.1906038224697113,0.4145597219467163,21.694129943847656,-7.300565242767334,12.541824340820312,52045.0,51676.0,50504.0,48794.0,-0.08071339784474747,0.5945463374778752,0.5
0.658,TAKEOFF,incipient,1.0,0.6043216586112976,0.015887662768363953,-0.0010418245801702142,0.022584425285458565,0.001460146508179605,0.005912366788834333,0.38046330213546753,0.042324237525463104,-3.0799198150634766,23.365406036376953,14.843406677246094,9.158860206604004,52240.0,50022.0,45679.0,50903.0,-0.47351051023348417,-0.3684939574788513,0.5,-0.37077537178993225,0.5365803837776184,0.008040908724069595,0.017684394493699074,-0.011239510960876942,0.09740228205919266,2.146902561187744,2.383354663848877,0.7239019870758057,12.165303230285645,-9.634042739868164,4.533669471740723,50513.0,51565.0,48885.0,45125.0,0.5565075193315804,-0.22427523476168895,0.5,-0.3806106448173523,-0.4799351096153259,0.007153979502618313,-0.009446886368095875,0.040764812380075455,0.04197033494710922,0.3988391160964966,-0.24337781965732574,0.649086058139801,11.794441223144531,8.566482543945312,9.581807136535645,52937.0,49393.0,50541.0,50688.0,-0.08568089215085513,0.5938508101537233,0.5
0.679,TAKEOFF,incipient,1.0,0.6043216586112976,0.015887662768363953,-0.0010418245801702142,0.022228332236409187,0.00031708390451967716,0.014073104597628117,0.8373463153839111,-0.10573255270719528,-2.9105682373046875,27.25102424621582,-10.453142166137695,10.522513389587402,50687.0,53319.0,48195.0,47578.0,-0.4704134117498447,-0.37243955488893904,0.5,-0.37077537178993225,0.5365803837776184,0.008040908724069595,0.007775508798658848,-0.017640480771660805,0.10636211931705475,2.232485771179199,2.507336139678955,0.7942080497741699,19.318674087524414,-12.490408897399902,3.639733076095581,51393.0,52923.0,47960.0,43231.0,0.5583629786979465,-0.2196150814938641,0.5,-0.3806106448173523,-0.4799351096153259,0.007153979502618313,-0.0077561805956065655,0.03865661844611168,0.06465701758861542,0.5717453956604004,-0.36018407344818115,0.803655207157135,1.5724966526031494,0.509324312210083,6.157595157623291,51236.0,50145.0,52153.0,50654.0,-0.09064239837222228,0.5931137796555829,0.5
0.698,TAKEOFF,incipient,1.0,0.6043216586112976,0.015887662768363953,-0.0010418245801702142,0.020443744957447052,0.002349366433918476,0.01834268681704998,1.2323192358016968,0.04476719722151756,-2.730299234390259,14.963956832885742,-2.8997063636779785,9.854538917541504,50597.0,52320.0,48840.0,49352.0,-0.4672834369118405,-0.3763591231627818,0.5,-0.37077537178993225,0.5365803837776184,0.008040908724069595,-0.0024404828436672688,-0.026597939431667328,0.11657971888780594,3.1102187633514404,3.0517849922180176,1.0427992343902588,3.6534535884857178,-3.8690025806427,4.833493232727051,50878.0,51770.0,49384.0,45608.0,0.560179415071572,-0.21493957971967723,0.5,-0.3806106448173523,-0.4799351096153259,0.007153979502618313,-0.006459623109549284,0.03665776923298836,0.07027596235275269,0.5299233794212341,-0.3470116853713989,0.9358829259872437,-10.56501293182373,-0.6341596245765686,6.55383825302124,50405.0,50022.0,53615.0,51407.0,-0.09559756975802795,0.592335297493201,0.5
0.719,TAKEOFF,incipient,1.0,0.6043216586112976,0.015887662768363953,-0.0010418245801702142,0.019610952585935593,-0.0017741784686222672,0.02204117178916931,1.4562219381332397,0.18586893379688263,-2.5496771335601807,-5.738101482391357,-33.00120544433594,8.852561950683594,44073.0,56018.0,55043.0,45365.0,-0.4641208044678307,-0.3802523883687433,0.5,-0.37363821268081665,0.5384979844093323,0.01639820821583271,-0.013182061724364758,-0.038839008659124374,0.12611861526966095,3.044567108154297,3.0698046684265137,1.1241347789764404,-15.190789222717285,1.7197706699371338,4.719812393188477,50751.0,50720.0,49206.0,46433.0,0.5619567015049584,-0.21024905620160858,0.5,-0.3835601210594177,-0.4727853834629059,0.011677644215524197,0.038669586181640625,0.004849545191973448,0.08315295726060867,0.525122344493866,-0.6061174273490906,1.115952968597412,-10.742728233337402,-8.18113899230957,8.748064041137695,53111.0,50910.0,51439.0,50580.0,-0.10054606000018153,0.5915154180733075,0.5
0.739,TAKEOFF,incipient,1.0,0.6004543900489807,0.01951378956437111,0.0014843323733657598,0.018935566768050194,-0.010602043941617012,0.030869249254465103,1.2450577020645142,0.9467077255249023,-2.471799612045288,-15.172948837280273,-69.04785919189453,8.199182510375977,44073.0,56018.0,55043.0,45365.0,-0.4609257354485563,-0.3841190784134621,0.5,-0.37363821268081665,0.5384979844093323,0.01639820821583271,-0.023714302107691765,-0.05132683739066124,0.13264989852905273,2.651012659072876,2.9892711639404297,1.2213916778564453,-30.245180130004883,6.286633491516113,4.664146900177002,50163.0,50304.0,50751.0,47492.0,0.5636947137867264,-0.20554383875198126,0.5,-0.3835601210594177,-0.4727853834629059,0.011677644215524197,0.039513684809207916,0.0037924356292933226,0.10397288203239441,0.4689839780330658,-0.47997912764549255,1.2369283437728882,6.983723163604736,-5.988859176635742,8.96345329284668,53280.0,52036.0,51439.0,49217.0,-0.10548752325752563,0.590654198695813,0.5
0.758,TAKEOFF,incipient,1.0,0.6004543900489807,0.01951378956437111,0.0014843323733657598,0.019377395510673523,-0.01421431452035904,0.03517454117536545,0.9805226922035217,2.371513843536377,-2.3443729877471924,0.6601110100746155,-67.53911590576172,5.154262065887451,46555.0,56112.0,53500.0,45999.0,-0.45769845315169266,-0.38795892306086704,0.5,-0.37363821268081665,0.5384979844093323,0.01639820821583271,-0.03452909365296364,-0.06323251873254776,0.14528483152389526,1.9591455459594727,2.848402976989746,1.2999671697616577,-33.23617172241211,10.032074928283691,3.1139299869537354,49570.0,49545.0,51196.0,48227.0,0.5653933304502978,-0.2008242562100511,0.5,-0.3835601210594177,-0.4727853834629059,0.011677644215524197,0.022220054641366005,0.016662783920764923,0.10658272355794907,0.5420531034469604,-0.1642231047153473,1.3948005437850952,13.79605484008789,-11.369932174682617,7.217014312744141,53460.0,50894.0,51821.0,50967.0,-0.1104216141800063,0.5897516995498036,0.5
0.778,TAKEOFF,incipient,1.0,0.6004543900489807,0.01951378956437111,0.0014843323733657598,0.009242599830031395,-0.014927058480679989,0.04368192330002785,1.000966191291809,3.6733784675598145,-2.3786892890930176,17.710725784301758,-59.203914642333984,8.322553634643555,47717.0,57715.0,51871.0,44590.0,-0.45443918312624365,-0.39177165395106417,0.5,-0.37363821268081665,0.5384979844093323,0.01639820821583271,-0.015602323226630688,-0.10092512518167496,0.16307689249515533,1.6068816184997559,2.317040205001831,1.3618149757385254,-17.928001403808594,16.923828125,4.653372764587402,51539.0,49623.0,49832.0,48742.0,0.5670524327823833,-0.19609063841902455,0.5,-0.3835601210594177,-0.4727853834629059,0.011677644215524197,0.035680096596479416,0.006762745790183544,0.1245613843202591,0.885402500629425,-0.16741473972797394,1.574537992477417,10.41671371459961,7.976706027984619,8.682440757751465,53528.0,49920.0,51240.0,52487.0,-0.11534798793280894,0.5888079837093351,0.5
0.798,TAKEOFF,incipient,1.0,0.6004543900489807,0.01951378956437111,0.0014843323733657598,-0.008057028986513615,-0.01564275659620762,0.05407869070768356,1.2552838325500488,4.738126754760742,-2.2552034854888916,23.876136779785156,-23.476146697998047,9.494062423706055,50857.0,56113.0,51209.0,46377.0,-0.45114815315677836,-0.39555700461909155,0.5,-0.37363821268081665,0.5384979844093323,0.01639820821583271,-0.024385593831539154,-0.10753850638866425,0.18062086403369904,1.6068816184997559,2.317040205001831,1.3618149757385254,-17.928001403808594,16.923828125,4.653372764587402,52292.0,49932.0,49098.0,47949.0,0.5686719048312798,-0.19134331620300662,0.5,-0.3835601210594177,-0.4727853834629059,0.011677644215524197,0.035680096596479416,0.006762745790183544,0.1245613843202591,1.024249792098999,-0.374959796667099,1.7862001657485962,1.217833399772644,15.91191577911377,10.42479419708252,53528.0,49920.0,51240.0,52487.0,-0.12026630022045814,0.5878231171290242,0.5
0.818,TAKEOFF,incipient,1.0,0.6004543900489807,0.01951378956437111,0.0014843323733657598,-0.025764605030417442,-0.01990884728729725,0.06308655440807343,1.635776162147522,5.1638689041137695,-2.0722837448120117,5.353765964508057,-11.564318656921387,10.430091857910156,48963.0,54364.0,54543.0,46963.0,-0.4478255932475119,-0.3993147105135422,0.5,-0.3702874779701233,0.5245350003242493,0.03281943500041962,-0.024385593831539154,-0.10753850638866425,0.18062086403369904,1.2566570043563843,1.9605863094329834,1.4903888702392578,-14.27101993560791,19.154565811157227,6.61274528503418,51968.0,50823.0,49421.0,46732.0,0.5702516334149743,-0.18658262134388018,0.5,-0.3758567273616791,-0.47267061471939087,0.02194390259683132,0.0314733050763607,0.0045671844854950905,0.14960521459579468,0.9076141715049744,-0.6439563632011414,2.009352207183838,-14.732805252075195,12.375175476074219,13.088245391845703,53837.0,49091.0,52177.0,52291.0,-0.12517620731087992,0.5867971686394402,0.5
0.838,TAKEOFF,incipient,1.0,0.5939900279045105,0.01935257390141487,0.009576727636158466,-0.0643652155995369,-0.024843314662575722,0.0902642160654068,1.6583728790283203,5.576415538787842,-1.8693662881851196,-11.496007919311523,-19.257753372192383,13.400203704833984,46990.0,54735.0,56608.0,45211.0,-0.4444717356062305,-0.403044509015053,0.5,-0.3702874779701233,0.5245350003242493,0.03281943500041962,-0.03456571325659752,-0.11916358768939972,0.2052694410085678,1.0211896896362305,1.587557315826416,1.6049224138259888,-15.730582237243652,12.357242584228516,9.583635330200195,51792.0,51321.0,49720.0,45767.0,0.5717915081290533,-0.1818088865581182,0.5,-0.3758567273616791,-0.47267061471939087,0.02194390259683132,0.034659482538700104,-0.0001517784403404221,0.16023312509059906,0.6159265041351318,-0.7534617781639099,2.2433202266693115,-11.285191535949707,-8.826480865478516,11.60234260559082,51795.0,51559.0,55058.0,50120.0,-0.13007736605942455,0.5857302099422929,0.5
0.858,TAKEOFF,incipient,1.0,0.5939900279045105,0.01935257390141487,0.009576727636158466,-0.09237297624349594,-0.025162117555737495,0.10983220487833023,1.4078730344772339,5.909163951873779,-1.6357313394546509,-5.140796184539795,-18.303024291992188,12.42617130279541,46235.0,55644.0,57399.0,43369.0,-0.44108681462806304,-0.40674613945465876,0.5,-0.3702874779701233,0.5245350003242493,0.03281943500041962,-0.043542392551898956,-0.11928407847881317,0.21727655827999115,0.2193169742822647,1.3951514959335327,1.8959592580795288,-24.098739624023438,1.97658371925354,8.87089729309082,50884.0,48849.0,51194.0,48628.0,0.5732914213544197,-0.17702244547353085,0.5,-0.3758567273616791,-0.47267061471939087,0.02194390259683132,0.038437969982624054,-0.0007530684233643115,0.17551806569099426,0.3965938687324524,-0.3956626057624817,2.4292609691619873,-17.4688777923584,-25.462488174438477,10.689929962158203,51355.0,51052.0,55627.0,50803.0,-0.13496943393284833,0.5846223156054227,0.5
0.878,TAKEOFF,incipient,1.0,0.5939900279045105,0.01935257390141487,0.009576727636158466,-0.1261148303747177,-0.0026858136989176273,0.11060202121734619,1.0046669244766235,6.319530963897705,-1.2984105348587036,-12.527825355529785,-6.6688408851623535,11.924574851989746,48055.0,54800.0,56519.0,45254.0,-0.43767106687909973,-0.41041934313200995,0.5,-0.3702874779701233,0.5245350003242493,0.03281943500041962,-0.048852402716875076,-0.11705844849348068,0.22359739243984222,-0.3490501642227173,1.3135157823562622,2.035437822341919,-26.230031967163086,7.090699672698975,7.495274543762207,51666.0,50814.0,50774.0,46803.0,0.574751268264813,-0.172223632605949,0.5,-0.3758567273616791,-0.47267061471939087,0.02194390259683132,0.049300093203783035,-0.010879900306463242,0.185799703001976,0.13566114008426666,0.06544683873653412,2.63484787940979,-9.102680206298828,-29.537343978881836,8.266607284545898,52097.0,52639.0,55166.0,49264.0,-0.1398520690332526,0.583473563057589,0.5
0.898,TAKEOFF,incipient,1.0,0.5939900279045105,0.01935257390141487,0.009576727636158466,-0.1488889902830124,-0.005554756615310907,0.11853566765785217,0.7059453725814819,6.303661346435547,-1.0666202306747437,-13.004508018493652,15.437097549438477,11.59946346282959,48968.0,54630.0,56374.0,46179.0,-0.43422473107985887,-0.41406386333345274,0.5,-0.3702874779701233,0.5245350003242493,0.03281943500041962,-0.0547383576631546,-0.11254531145095825,0.2322063148021698,-0.3490501642227173,1.3135157823562622,2.035437822341919,-26.230031967163086,7.090699672698975,7.495274543762207,51659.0,49668.0,51129.0,48281.0,0.5761709468341365,-0.16741278333584522,0.5,-0.3758567273616791,-0.47267061471939087,0.02194390259683132,0.04883808270096779,-0.011301208287477493,0.19614528119564056,0.05196584761142731,0.6323733329772949,2.7605855464935303,3.3259236812591553,-25.25396728515625,6.952504634857178,53353.0,51841.0,54188.0,50450.0,-0.14472493012197832,0.5822840325830586,0.5
0.918,TAKEOFF,incipient,1.0,0.5939900279045105,0.01935257390141487,0.009576727636158466,-0.17574700713157654,0.0043666609562933445,0.13363373279571533,0.37631896138191223,5.957180023193359,-0.7575377821922302,-4.973435878753662,32.32453155517578,10.677276611328125,50447.0,53667.0,55781.0,47539.0,-0.43074804808860273,-0.41767944534997026,0.5,-0.37814491987228394,0.5177642703056335,0.05030351132154465,-0.08107494562864304,-0.0998343750834465,0.2412213534116745,-1.3203071355819702,1.1038079261779785,2.414865016937256,-13.446215629577637,11.426642417907715,8.732873916625977,52378.0,51607.0,50512.0,46198.0,0.5775503578435868,-0.16259023388489485,0.5,-0.37111541628837585,-0.47275322675704956,0.03822154924273491,0.0368984192609787,-0.005697958171367645,0.19726386666297913,0.06740063428878784,1.1722114086151123,2.868966817855835,7.80033016204834,-17.086523056030273,7.765841007232666,53981.0,52155.0,54253.0,50391.0,-0.14958767664345482,0.5810538073159948,0.5
0.938,TAKEOFF,incipient,1.0,0.5756909251213074,0.02577175199985504,0.022560037672519684,-0.19728431105613708,0.008813639171421528,0.145082488656044,0.2387995421886444,5.200932025909424,-0.46528559923171997,8.425042152404785,51.98570251464844,14.509552955627441,52517.0,53485.0,54515.0,47527.0,-0.42724126088450504,-0.4212658364949836,0.5,-0.37814491987228394,0.5177642703056335,0.05030351132154465,-0.08858708292245865,-0.09353280067443848,0.2523162364959717,-1.3625308275222778,0.806914210319519,2.4848055839538574,-0.6575477719306946,16.349166870117188,5.734502792358398,53082.0,51935.0,49926.0,45920.0,0.5788894048885888,-0.15775632129247805,0.5,-0.37111541628837585,-0.47275322675704956,0.03822154924273491,0.031102219596505165,-0.0045570675283670425,0.21132661402225494,0.23154287040233612,1.4460786581039429,3.0085902214050293,10.591405868530273,-4.256740570068359,9.584322929382324,55365.0,51557.0,53197.0,50930.0,-0.15443996874900037,0.5797829732346473,0.5
0.958,TAKEOFF,incipient,1.0,0.5756909251213074,0.02577175199985504,0.022560037672519684,-0.16443876922130585,0.004439094103872776,0.1429937779903412,0.3249688446521759,3.7065043449401855,-0.2184416949748993,11.193747520446777,68.44058227539062,14.21786880493164,55801.0,52758.0,52942.0,48167.0,-0.42370461455066905,-0.4248227861220122,0.5,-0.37814491987228394,0.5177642703056335,0.05030351132154465,-0.08827660977840424,-0.09084901958703995,0.2608895003795624,-1.2746816873550415,0.38632455468177795,2.561206340789795,8.047751426696777,23.947389602661133,5.410225868225098,53396.0,53083.0,49763.0,44550.0,0.5801879943855325,-0.15291138339212457,0.5,-0.37111541628837585,-0.47275322675704956,0.03822154924273491,0.027115341275930405,-0.005310830660164356,0.22781233489513397,0.4758091866970062,1.4132791757583618,3.1947832107543945,13.841814994812012,4.839531421661377,9.444802284240723,54612.0,51520.0,54259.0,50777.0,-0.15928146732057383,0.5784716191553436,0.5
0.979,TAKEOFF,incipient,1.0,0.5756909251213074,0.02577175199985504,0.022560037672519684,-0.17636284232139587,0.0030682412907481194,0.1511053740978241,0.5730478167533875,2.2731924057006836,0.09198758751153946,19.2684326171875,76.2965087890625,14.215794563293457,55801.0,52758.0,52942.0,48167.0,-0.4201383562569996,-0.4283500456421903,0.5,-0.37814491987228394,0.5177642703056335,0.05030351132154465,-0.09017583727836609,-0.08630616217851639,0.26745548844337463,-1.1037250757217407,-0.10334011912345886,2.6540277004241943,7.213228702545166,25.307701110839844,4.593451023101807,53252.0,51137.0,50274.0,47445.0,0.5814460355783142,-0.1480557587879033,0.5,-0.37111541628837585,-0.47275322675704956,0.03822154924273491,0.025295164436101913,-0.010241745039820671,0.23171694576740265,0.6632816791534424,1.3362644910812378,3.3930611610412598,0.47243568301200867,6.483180046081543,11.451407432556152,54988.0,50763.0,54509.0,51570.0,-0.1641118339944748,0.5771198367262816,0.5
0.998,TAKEOFF,incipient,1.0,0.5756909251213074,0.02577175199985504,0.022560037672519684,-0.1752604991197586,0.00460755405947566,0.16692078113555908,0.9444875717163086,0.721939206123352,0.4229623079299927,22.6345157623291,74.70050811767578,16.366262435913086,55671.0,51943.0,54324.0,49172.0,-0.4165427352429281,-0.43184736854164096,0.5,-0.37814491987228394,0.5177642703056335,0.05030351132154465,-0.09040667116641998,-0.08226446807384491,0.2738978862762451,-1.0783336162567139,-0.6305164694786072,2.746413469314575,-2.517545461654663,27.843212127685547,4.572602272033691,53696.0,50389.0,49973.0,48531.0,0.5826634405446786,-0.1431897868307579,0.5,-0.37111541628837585,-0.47275322675704956,0.03822154924273491,0.023888621479272842,-0.014701536856591702,0.2375003844499588,0.6792342662811279,1.1886420249938965,3.6079792976379395,-4.955837249755859,8.99940299987793,13.189605712890625,55593.0,50405.0,54546.0,51780.0,-0.16893073118499138,0.5757277204211242,0.5
1.018,TAKEOFF,incipient,1.0,0.5756909251213074,0.02577175199985504,0.022560037672519684,-0.19867295026779175,-0.02526112273335457,0.1698019653558731,1.5927678346633911,-0.5512439012527466,0.7623371481895447,15.09339427947998,69.53565216064453,13.635186195373535,55671.0,51943.0,54324.0,49172.0,-0.4129180027999947,-0.4353145103987042,0.5,-0.3878702223300934,0.5082511901855469,0.07948807626962662,-0.09088117629289627,-0.07768955081701279,0.28301629424095154,-1.1882801055908203,-1.1253269910812378,2.811452627182007,-9.311306953430176,16.906944274902344,3.9173901081085205,52840.0,49949.0,51172.0,49025.0,0.5838401242023636,-0.13831380759478992,0.5,-0.3616909086704254,-0.4779670238494873,0.061148036271333694,0.05525844171643257,-0.034445807337760925,0.26808351278305054,0.7855415344238281,0.7221280932426453,3.900489330291748,-3.2124171257019043,11.151723861694336,15.473955154418945,56010.0,50209.0,54083.0,51114.0,-0.17373782210799352,0.5742953675323972,0.5
1.038,TAKEOFF,incipient,1.0,0.5588707327842712,0.021527310833334923,0.03669591248035431,-0.19521448016166687,-0.03126484900712967,0.18072284758090973,1.871309518814087,-1.9173678159713745,1.0682581663131714,10.54116153717041,64.90238952636719,12.806215286254883,56219.0,52616.0,53596.0,49182.0,-0.409264412254285,-0.4387512289010193,0.5,-0.3878702223300934,0.5082511901855469,0.07948807626962662,-0.08794572204351425,-0.07224379479885101,0.2931884527206421,-1.1882801055908203,-1.1253269910812378,2.811452627182007,-9.311306953430176,16.906944274902344,3.9173901081085205,52076.0,50611.0,52100.0,48474.0,0.5849760043150474,-0.13342816185349188,0.5,-0.3616909086704254,-0.4779670238494873,0.061148036271333694,0.05311792343854904,-0.03724456951022148,0.27614548802375793,0.6968085169792175,0.5427312850952148,4.180765151977539,-3.7087950706481934,2.350017786026001,14.259176254272461,55165.0,50331.0,55092.0,51248.0,-0.17853277080446997,0.5728228781646894,0.5
1.058,TAKEOFF,incipient,1.0,0.5588707327842712,0.021527310833334923,0.03669591248035431,-0.19363369047641754,-0.04202801361680031,0.18843376636505127,2.0091605186462402,-3.0554094314575195,1.3607691526412964,-11.412208557128906,42.43104553222656,14.296762466430664,54456.0,51576.0,56065.0,50122.0,-0.4055822189487261,-0.4421572838624595,0.5,-0.3878702223300934,0.5082511901855469,0.07948807626962662,-0.10283274203538895,-0.053330231457948685,0.2957979738712311,-1.5217729806900024,-1.2361990213394165,2.9063830375671387,-9.970677375793457,10.164043426513672,5.692549705505371,53204.0,50285.0,51454.0,49034.0,0.5860710014980945,-0.12853319105593108,0.5,-0.3616909086704254,-0.4779670238494873,0.061148036271333694,0.04759392514824867,-0.032625891268253326,0.2841176986694336,0.50982666015625,0.6286413669586182,4.4899067878723145,-12.054084777832031,-13.198269844055176,10.577431678771973,53469.0,51957.0,56673.0,49921.0,-0.1833152421640082,0.5713103552276564,0.5
1.078,TAKEOFF,incipient,1.0,0.5588707327842712,0.021527310833334923,0.03669591248035431,-0.1818370670080185,-0.048653554171323776,0.19532638788223267,1.7270941734313965,-3.793208599090576,1.6618226766586304,-27.138778686523438,23.30698013305664,13.043899536132812,52891.0,52524.0,57625.0,49583.0,-0.40187168022524095,-0.44553243723991826,0.5,-0.3878702223300934,0.5082511901855469,0.07948807626962662,-0.09255029261112213,-0.05068090558052063,0.29784494638442993,-1.820698618888855,-1.6654400825500488,3.0193958282470703,-7.938116550445557,6.285749435424805,4.9940314292907715,52968.0,50576.0,51926.0,48763.0,0.5871250392241047,-0.12362923730288637,0.5,-0.3616909086704254,-0.4779670238494873,0.061148036271333694,0.04476170986890793,-0.03357043117284775,0.29522326588630676,0.25125670433044434,1.0588502883911133,4.646152973175049,-14.6849365234375,-29.13037872314453,6.615555286407471,53097.0,52114.0,56872.0,50143.0,-0.18808490194821437,0.5697579044288289,0.5
1.099,TAKEOFF,incipient,1.0,0.5588707327842712,0.021527310833334923,0.03669591248035431,-0.16760647296905518,-0.053885385394096375,0.20396952331066132,1.1610814332962036,-4.2346014976501465,1.9197624921798706,-36.245384216308594,11.406763076782227,8.761035919189453,52567.0,52823.0,57548.0,50379.0,-0.3981330554067632,-0.4488764531499455,0.5,-0.3878702223300934,0.5082511901855469,0.07948807626962662,-0.08797115087509155,-0.04417284578084946,0.30835777521133423,-2.083064317703247,-1.670562744140625,3.155618667602539,-2.2166645526885986,11.305272102355957,3.229174852371216,52038.0,50814.0,53057.0,48852.0,0.5881380438282614,-0.11871664332293935,0.5,-0.3616909086704254,-0.4779670238494873,0.061148036271333694,0.04476170986890793,-0.03357043117284775,0.29522326588630676,-0.0009045946062542498,1.578288197517395,4.761805057525635,-15.929903030395508,-26.097171783447266,5.151385307312012,53097.0,52114.0,56872.0,50143.0,-0.1928414168140729,0.5681656342662244,0.5
1.118,TAKEOFF,incipient,1.0,0.5588707327842712,0.021527310833334923,0.03669591248035431,-0.1566435992717743,-0.05807243287563324,0.2147381603717804,0.4609587788581848,-4.4279303550720215,2.088155746459961,-32.56406021118164,9.049544334411621,7.134405612945557,51281.0,53610.0,57128.0,51933.0,-0.3943666057791134,-0.45218909788523354,0.5,-0.40022167563438416,0.5064279437065125,0.10665220767259598,-0.0982217937707901,-0.024703871458768845,0.3172541558742523,-2.1356606483459473,-1.9140372276306152,3.2255046367645264,1.8980238437652588,16.897052764892578,3.720202684402466,53065.0,50679.0,51906.0,48610.0,0.5891099445134794,-0.11379575244852169,0.5,-0.3542003929615021,-0.4801434576511383,0.09184876829385757,0.044602956622838974,-0.037143416702747345,0.31899493932724,-0.3369424641132355,2.0464320182800293,4.83864688873291,-8.70712661743164,-13.376199722290039,3.3353824615478516,54972.0,51825.0,55986.0,49542.0,-0.19758445433724303,0.5665336560207644,0.5
1.138,TAKEOFF,incipient,1.0,0.5588707327842712,0.021527310833334923,0.03669591248035431,-0.12710325419902802,-0.06942110508680344,0.23117581009864807,-0.014032167382538319,-4.690225124359131,2.207582950592041,-9.229954719543457,4.485530376434326,9.74085807800293,54356.0,55350.0,55484.0,49238.0,-0.39057259457273885,-0.45547013993094976,0.5,-0.40022167563438416,0.5064279437065125,0.10665220767259598,-0.0982217937707901,-0.024703871458768845,0.3172541558742523,-2.1356606483459473,-1.9140372276306152,3.2255046367645264,1.8980238437652588,16.897052764892578,3.720202684402466,54528.0,49683.0,50406.0,49709.0,0.590040673355353,-0.10886690859192018,0.5,-0.3542003929615021,-0.4801434576511383,0.09184876829385757,0.044602956622838974,-0.037143416702747345,0.31899493932724,-0.5541284084320068,2.336589813232422,4.93454647064209,-2.7924797534942627,-7.395935535430908,2.797508716583252,54972.0,51825.0,55986.0,49542.0,-0.20231368303529149,0.5648620837484983,0.5
1.159,TAKEOFF,incipient,1.0,0.5429282188415527,0.01312732882797718,0.059185415506362915,-0.10781654715538025,-0.0681663453578949,0.23824076354503632,-0.07421104609966278,-4.783565998077393,2.3584532737731934,10.375475883483887,4.286407947540283,9.933284759521484,57261.0,53957.0,54992.0,48348.0,-0.3867512869443159,-0.4587193499809174,0.5,-0.40022167563438416,0.5064279437065125,0.10665220767259598,-0.08446766436100006,-0.008543495088815689,0.3399973213672638,-2.0056965351104736,-2.7345566749572754,3.3210322856903076,7.929337978363037,18.83662223815918,3.275447368621826,54064.0,51414.0,51205.0,48419.0,0.5909301653069038,-0.10393045622124132,0.5,-0.3542003929615021,-0.4801434576511383,0.09184876829385757,0.010286521166563034,-0.022745495662093163,0.314300537109375,-0.619521975517273,2.495145559310913,4.984626770019531,3.101121664047241,-0.7401052713394165,1.1237046718597412,54965.0,51860.0,55634.0,51315.0,-0.20702877239085912,0.5631510342726308,0.5
1.178,TAKEOFF,incipient,1.0,0.5429282188415527,0.01312732882797718,0.059185415506362915,-0.0934637114405632,-0.04578602313995361,0.2584860324859619,-0.022538477554917336,-4.905422210693359,2.627049207687378,14.973001480102539,11.964447975158691,8.635560989379883,57261.0,53957.0,54992.0,48348.0,-0.38290294995821955,-0.461936500953641,0.5,-0.40022167563438416,0.5064279437065125,0.10665220767259598,-0.06586867570877075,0.00417652353644371,0.3368997573852539,-1.841616153717041,-3.0981032848358154,3.375345468521118,6.549243927001953,12.405832290649414,4.4235992431640625,54652.0,52932.0,51048.0,46899.0,0.5917783582031254,-0.09898674033633718,0.5,-0.3542003929615021,-0.4801434576511383,0.09184876829385757,-0.010619085282087326,-0.010597406886518002,0.32142117619514465,-0.5429506897926331,2.490431070327759,4.98044490814209,3.193835496902466,4.111147880554199,0.18542452156543732,55465.0,52435.0,55268.0,51353.0,-0.2117293928747603,0.5614006271753581,0.5
1.198,TAKEOFF,incipient,1.0,0.5429282188415527,0.01312732882797718,0.059185415506362915,-0.07580573111772537,-0.04513753578066826,0.26526835560798645,0.18434575200080872,-5.223760604858398,2.802394390106201,7.830864906311035,24.26589584350586,7.889529705047607,57104.0,53954.0,53720.0,50137.0,-0.3790278525678581,-0.465121368008177,0.5,-0.40022167563438416,0.5064279437065125,0.10665220767259598,-0.02220662496984005,-0.01582595519721508,0.3352055251598358,-1.5313599109649658,-3.3823132514953613,3.449815034866333,9.215117454528809,2.476297616958618,4.15105676651001,54999.0,51906.0,50897.0,48747.0,0.5925851927653291,-0.09403610644469385,0.5,-0.3542003929615021,-0.4801434576511383,0.09184876829385757,-0.019571572542190552,-0.009409541264176369,0.32700616121292114,-0.5277575254440308,2.472716808319092,4.983007907867432,5.049567222595215,13.151772499084473,0.3251294195652008,55653.0,51911.0,55475.0,52085.0,-0.21641521596901292,0.5596109847895102,0.5
1.218,TAKEOFF,incipient,1.0,0.5429282188415527,0.01312732882797718,0.059185415506362915,-0.07221989333629608,-0.055805061012506485,0.2708001732826233,0.3271072506904602,-5.474607467651367,2.946183919906616,-3.1301848888397217,19.35576057434082,9.043195724487305,54911.0,53899.0,56944.0,50092.0,-0.3751262655968771,-0.4682737285598469,0.5,-0.4035904109477997,0.5045811533927917,0.1371079683303833,-0.02519722655415535,0.0028491464909166098,0.3388420641422272,-1.4051216840744019,-3.3886163234710693,3.61153244972229,0.7225061058998108,-8.312373161315918,3.1320078372955322,53887.0,51461.0,52700.0,48906.0,0.5933506126052863,-0.08907890053728451,0.5,-0.35751408338546753,-0.47670120000839233,0.12199252098798752,-0.027780313044786453,-0.00849063415080309,0.3336918354034424,-0.4428372085094452,2.2211380004882812,4.987910747528076,2.686255931854248,15.234172821044922,0.20907698571681976,55981.0,51249.0,55341.0,52900.0,-0.22108591418979806,0.5577822321900019,0.5
1.238,TAKEOFF,incipient,1.0,0.5284530520439148,0.0121083352714777,0.08296238631010056,-0.06171548739075661,-0.045140933245420456,0.27598342299461365,0.1333836168050766,-5.656919956207275,3.2251205444335938,-7.4026408195495605,7.684383392333984,8.078055381774902,54911.0,53899.0,56944.0,50092.0,-0.3711984617202313,-0.4713933622957942,0.5,-0.4035904109477997,0.5045811533927917,0.1371079683303833,-0.01736569032073021,0.013397949747741222,0.3479287922382355,-1.4051216840744019,-3.3886163234710693,3.61153244972229,0.7225061058998108,-8.312373161315918,3.1320078372955322,54760.0,52873.0,51802.0,47753.0,0.5940745642291696,-0.0841154690643889,0.5,-0.35751408338546753,-0.47670120000839233,0.12199252098798752,-0.03494219481945038,-0.0076946378685534,0.34071359038352966,-0.38898199796676636,1.9173872470855713,4.991572856903076,-0.3226737976074219,17.96834373474121,0.32589662075042725,55981.0,51249.0,55341.0,52900.0,-0.22574116111034728,0.5559144971850907,0.5
1.258,TAKEOFF,incipient,1.0,0.5284530520439148,0.0121083352714777,0.08296238631010056,-0.028846971690654755,-0.04249338433146477,0.28835245966911316,0.0023092608898878098,-5.842825412750244,3.420036792755127,-7.804545879364014,-2.292330503463745,8.975478172302246,54974.0,55300.0,56135.0,49814.0,-0.36724471544512854,-0.47448005119038095,0.5,-0.4035904109477997,0.5045811533927917,0.1371079683303833,-0.0008248898084275424,0.011248564347624779,0.35343629121780396,-1.1417491436004639,-3.0694875717163086,3.682267427444458,-1.4825012683868408,-15.984267234802246,3.4301702976226807,53767.0,51820.0,52740.0,48908.0,0.5947569970412913,-0.07914615891138031,0.5,-0.35751408338546753,-0.47670120000839233,0.12199252098798752,-0.0348406620323658,-0.011258848942816257,0.3410911560058594,-0.37801241874694824,1.5703858137130737,4.990357875823975,-1.5319629907608032,17.06414222717285,0.2883162200450897,56025.0,52142.0,55405.0,52324.0,-0.23038063138375597,0.5540079103074449,0.5
1.278,TAKEOFF,incipient,1.0,0.5284530520439148,0.0121083352714777,0.08296238631010056,-0.006726308260113001,-0.035763587802648544,0.29694268107414246,-0.191851407289505,-5.720622539520264,3.584864616394043,-1.8662923574447632,-9.336430549621582,7.339539051055908,54974.0,55300.0,56135.0,49814.0,-0.3632653030918444,-0.47753357952042536,0.5,-0.4035904109477997,0.5045811533927917,0.1371079683303833,0.01794607564806938,0.010767432861030102,0.3590666651725769,-1.1580531597137451,-2.7561256885528564,3.745030403137207,-1.9265644550323486,-13.159905433654785,1.510608196258545,54326.0,51960.0,52129.0,48423.0,0.595397863347639,-0.07417131737448263,0.5,-0.35751408338546753,-0.47670120000839233,0.12199252098798752,0.0017427551792934537,-0.03593731299042702,0.3662528991699219,-0.11462593823671341,0.9225208163261414,4.992751598358154,1.097472906112671,12.418782234191895,-0.24054138362407684,55990.0,50956.0,54813.0,52623.0,-0.2350040007657212,0.5520626048050211,0.5
1.298,TAKEOFF,incipient,1.0,0.5284530520439148,0.0121083352714777,0.08296238631010056,0.004076368175446987,-0.04075454920530319,0.305271714925766,-0.22460806369781494,-5.313096046447754,3.727921724319458,-7.565473556518555,-25.2864933013916,7.808714389801025,53812.0,54458.0,57661.0,49968.0,-0.359260502774411,-0.4805537338802784,0.5,-0.4035904109477997,0.5045811533927917,0.1371079683303833,0.02493978850543499,0.013356407172977924,0.3705192804336548,-1.137790322303772,-2.4426984786987305,3.7960357666015625,1.549991250038147,-14.140113830566406,1.8902894258499146,53840.0,52014.0,52321.0,47959.0,0.5959971183592097,-0.06919129213649822,0.5,-0.35751408338546753,-0.47670120000839233,0.12199252098798752,0.008544238284230232,-0.04112020134925842,0.37842708826065063,-0.06432750076055527,0.6049992442131042,4.979408264160156,1.1080702543258667,8.424925804138184,-0.36928611993789673,55990.0,50956.0,54813.0,52623.0,-0.23961094613720263,0.5500787166317512,0.5
1.318,TAKEOFF,incipient,1.0,0.5284530520439148,0.0121083352714777,0.08296238631010056,0.015331360511481762,-0.03263625502586365,0.31538596749305725,-0.33971351385116577,-4.696871757507324,3.9380576610565186,-1.366786003112793,-25.959135055541992,6.484851360321045,54006.0,54482.0,57605.0,49212.0,-0.35523059438118,-0.48354030319673824,0.5,-0.39919009804725647,0.5035276412963867,0.17139862477779388,0.033772677183151245,0.01812846213579178,0.38279256224632263,-1.162310242652893,-2.083718776702881,3.869171380996704,5.85513162612915,-11.719837188720703,0.969969630241394,53867.0,51528.0,51926.0,48017.0,0.5965547201951393,-0.06420643124250909,0.5,-0.35075294971466064,-0.48375749588012695,0.15811721980571747,0.009038588032126427,-0.04168732091784477,0.3852444887161255,-0.03363078087568283,0.46344900131225586,4.978872776031494,-2.672481060028076,-3.2447516918182373,-1.2100932598114014,56115.0,51834.0,54239.0,51366.0,-0.24420114552700478,0.5480563844380417,0.5
1.338,TAKEOFF,incipient,1.0,0.5275202393531799,0.007754466962069273,0.11202222108840942,0.03185569867491722,-0.03175610303878784,0.322165846824646,-0.3705599308013916,-4.157299041748047,4.0557708740234375,6.1236572265625,-25.398515701293945,5.913327217102051,53602.0,55825.0,57810.0,46789.0,-0.3511758595552615,-0.4864930787438021,0.5,-0.39919009804725647,0.5035276412963867,0.17139862477779388,0.02871476300060749,0.02893093228340149,0.390584796667099,-1.0971037149429321,-1.8227927684783936,3.9152414798736572,0.17132049798965454,-8.861258506774902,0.5928164720535278,53487.0,50594.0,52037.0,48699.0,0.5970706298856301,-0.05921708307555262,0.5,-0.35075294971466064,-0.48375749588012695,0.15811721980571747,-0.016392044723033905,-0.011487282812595367,0.3837791681289673,-0.30122172832489014,0.6969425678253174,4.968472003936768,-5.903410911560059,-11.227738380432129,-1.5317744016647339,53893.0,51359.0,56004.0,51540.0,-0.24877427813427888,0.5459957495610825,0.5
1.359,TAKEOFF,incipient,1.0,0.5275202393531799,0.007754466962069273,0.11202222108840942,0.0462430976331234,-0.02946595661342144,0.3326093256473541,-0.28461918234825134,-3.6889188289642334,4.1908416748046875,4.543224334716797,-24.21014404296875,6.17113733291626,54498.0,55085.0,56840.0,47849.0,-0.347096581674841,-0.4894118541572531,0.5,-0.39919009804725647,0.5035276412963867,0.17139862477779388,0.029523245990276337,0.03458424285054207,0.3996018171310425,-1.0394903421401978,-1.6337766647338867,3.923022747039795,3.6129658222198486,-7.18097448348999,-0.8491222262382507,53506.0,51260.0,51462.0,47710.0,0.597544811374674,-0.05422359633227369,0.5,-0.35075294971466064,-0.48375749588012695,0.15811721980571747,-0.03048774227499962,0.0019064724911004305,0.384436696767807,-0.5241715312004089,0.9995364546775818,4.929638862609863,-7.7824530601501465,-13.069252014160156,-1.8866629600524902,53999.0,51165.0,55724.0,51620.0,-0.2533300243509433,0.5438969560149702,0.5
1.379,TAKEOFF,incipient,1.0,0.5275202393531799,0.007754466962069273,0.11202222108840942,0.0746523067355156,-0.04555820673704147,0.3486505448818207,-0.044861800968647,-3.396559715270996,4.247781753540039,5.035617828369141,-14.827984809875488,6.799415588378906,54498.0,55085.0,56840.0,47849.0,-0.34299304583337414,-0.4922964254490833,0.5,-0.39919009804725647,0.5035276412963867,0.17139862477779388,0.035336241126060486,0.03881342336535454,0.4109702408313751,-0.9860693216323853,-1.4344360828399658,3.934361696243286,1.5204765796661377,-7.858506679534912,-0.3671815097332001,52688.0,49269.0,51911.0,49307.0,0.5979772315225722,-0.0492263199985549,0.5,-0.35075294971466064,-0.48375749588012695,0.15811721980571747,-0.025667166337370872,-0.001804363913834095,0.3931756913661957,-0.6308587789535522,1.1716201305389404,4.892744064331055,-5.784306049346924,-7.929123401641846,-3.503286123275757,53639.0,51744.0,55608.0,50708.0,-0.25786806578401994,0.5417601504806424,0.5
1.398,TAKEOFF,incipient,1.0,0.5275202393531799,0.007754466962069273,0.11202222108840942,0.09016262739896774,-0.045699819922447205,0.35508236289024353,0.019164662808179855,-3.138256072998047,4.316051483154297,-1.2376503944396973,-10.989521980285645,4.844902992248535,54224.0,53584.0,56269.0,49513.0,-0.3388655388196623,-0.4951465910217498,0.5,-0.39919009804725647,0.5035276412963867,0.17139862477779388,0.034948915243148804,0.0429612435400486,0.4208657145500183,-0.9095893502235413,-1.2550066709518433,3.90840220451355,-2.741785764694214,-2.3783462047576904,-0.1518392264842987,54102.0,51025.0,49867.0,46939.0,0.5983678601082519,-0.044225603325126574,0.5,-0.35075294971466064,-0.48375749588012695,0.15811721980571747,-0.04377136379480362,0.013453391380608082,0.39767590165138245,-0.8278715014457703,1.4215316772460938,4.835095405578613,3.8252904415130615,-1.5205504894256592,-4.079219341278076,53962.0,51107.0,54911.0,51184.0,-0.26238808527788676,0.5395854822956271,0.5
1.418,TAKEOFF,incipient,1.0,0.5275202393531799,0.007754466962069273,0.11202222108840942,0.101096510887146,-0.044950611889362335,0.36298736929893494,-0.01649283990263939,-2.905085802078247,4.425823211669922,-6.485413074493408,-8.11617374420166,6.064015865325928,54280.0,53178.0,56301.0,49313.0,-0.3347143490978091,-0.4979621516822639,0.5,-0.3964548707008362,0.506654679775238,0.21037894487380981,0.034661974757909775,0.046662587672472,0.4275842010974884,-0.8815040588378906,-1.2305421829223633,3.835676431655884,2.320763349533081,-7.869660377502441,-2.352949619293213,52740.0,50576.0,50947.0,46949.0,0.5987166698313781,-0.03922179580315822,0.5,-0.35608142614364624,-0.4783598482608795,0.1939445286989212,-0.043406225740909576,0.016791649162769318,0.399445116519928,-0.7673816680908203,1.3887133598327637,4.754473686218262,8.93234634399414,6.868203163146973,-4.414967060089111,54737.0,50148.0,53830.0,51953.0,-0.2668897669364427,0.5373731034436049,0.5
1.438,TAKEOFF,incipient,1.0,0.5418242812156677,-0.00040256622014567256,0.15180926024913788,0.11106712371110916,-0.04397916793823242,0.3672281801700592,-0.17017783224582672,-2.7026233673095703,4.538014888763428,-10.648126602172852,-4.96768045425415,5.871237277984619,55169.0,51373.0,55361.0,50938.0,-0.33053976678706065,-0.5007429106561125,0.5,-0.3964548707008362,0.506654679775238,0.21037894487380981,0.0474889911711216,0.044396307319402695,0.4288458228111267,-0.8264331817626953,-0.9929178953170776,3.8187978267669678,7.153316020965576,-12.660683631896973,-3.2272307872772217,53024.0,50636.0,50134.0,46843.0,0.599023636314261,-0.034215247139833295,0.5,-0.35608142614364624,-0.4783598482608795,0.1939445286989212,-0.05649341642856598,0.024023378267884254,0.39944973587989807,-0.6476840972900391,1.2729285955429077,4.642138957977295,11.10037612915039,15.484594345092773,-4.680369853973389,55038.0,49966.0,53234.0,51964.0,-0.27137279614518545,0.5351231685437882,0.5
1.458,TAKEOFF,incipient,1.0,0.5418242812156677,-0.00040256622014567256,0.15180926024913788,0.12045563757419586,-0.04237810894846916,0.3741633892059326,-0.4063677191734314,-2.5453381538391113,4.636023998260498,-13.803971290588379,-11.15693187713623,6.437270641326904,53448.0,52325.0,56646.0,49739.0,-0.3263420836415293,-0.5034886736010107,0.5,-0.3964548707008362,0.506654679775238,0.21037894487380981,0.03933543711900711,0.051895059645175934,0.43514198064804077,-0.8264331817626953,-0.9929178953170776,3.8187978267669678,7.153316020965576,-12.660683631896973,-3.2272307872772217,52271.0,50064.0,50565.0,46908.0,0.599288738103561,-0.029206307233908664,0.5,-0.35608142614364624,-0.4783598482608795,0.1939445286989212,-0.04789959266781807,0.017462108284235,0.40834110975265503,-0.3578989803791046,0.8622951507568359,4.5812249183654785,14.057446479797363,17.980281829833984,-4.865688800811768,55038.0,49966.0,53234.0,51964.0,-0.2758368595931992,0.5328358348401144,0.5
1.478,TAKEOFF,incipient,1.0,0.5418242812156677,-0.00040256622014567256,0.15180926024913788,0.1290632039308548,-0.03997112810611725,0.3791852295398712,-0.6599909663200378,-2.3567235469818115,4.748892784118652,-8.962924003601074,-12.731197357177734,5.314189434051514,53202.0,53405.0,55626.0,49065.0,-0.3221215930298034,-0.5061992486204832,0.5,-0.3964548707008362,0.506654679775238,0.21037894487380981,0.05078156664967537,0.04958287999033928,0.4322843849658966,-0.5228179693222046,-0.6225718259811401,3.6720809936523438,5.825509071350098,-11.950072288513184,-0.8508093357086182,52456.0,50603.0,50244.0,45934.0,0.5995119566717866,-0.02419532615126092,0.5,-0.35608142614364624,-0.4783598482608795,0.1939445286989212,-0.04994097352027893,0.01782391406595707,0.41063007712364197,-0.08337822556495667,0.48664528131484985,4.482128620147705,13.609564781188965,14.656758308410645,-5.989181995391846,54760.0,50345.0,52507.0,51011.0,-0.28028164529505106,0.5305112621902566,0.5
1.498,TAKEOFF,incipient,1.0,0.5418242812156677,-0.00040256622014567256,0.15180926024913788,0.13671442866325378,-0.036918945610523224,0.3797306716442108,-0.8201769590377808,-2.0820093154907227,4.858485221862793,-9.745861053466797,-16.15397834777832,3.3261916637420654,53228.0,52234.0,56126.0,49190.0,-0.3178785899144447,-0.5088744462772761,0.5,-0.3964548707008362,0.506654679775238,0.21037894487380981,0.06015590578317642,0.04763289541006088,0.43009236454963684,-0.3872906267642975,-0.33981525897979736,3.6499521732330322,5.350728988647461,-12.229341506958008,-1.410488247871399,51448.0,50584.0,51127.0,45635.0,0.5996932764185902,-0.01918265410042083,0.5,-0.35608142614364624,-0.4783598482608795,0.1939445286989212,-0.06870000064373016,0.03619818016886711,0.4102074205875397,0.04261917248368263,0.32141056656837463,4.369925498962402,9.625954627990723,7.678873538970947,-5.440395355224609,53601.0,51065.0,53472.0,50025.0,-0.28470684261259566,0.5281496130544513,0.5
1.518,TAKEOFF,incipient,1.0,0.5418242812156677,-0.00040256622014567256,0.15180926024913788,0.14349499344825745,-0.03324968367815018,0.3869285583496094,-0.9452433586120605,-1.7218658924102783,4.951168537139893,-7.70618200302124,-16.899789810180664,2.193394184112549,52759.0,54010.0,56175.0,46682.0,-0.3136133708313735,-0.5115140796065965,0.5,-0.3890336751937866,0.5091980695724487,0.2520071268081665,0.05973035842180252,0.04936259984970093,0.43638524413108826,-0.3872906267642975,-0.33981525897979736,3.6499521732330322,5.350728988647461,-12.229341506958008,-1.410488247871399,52111.0,49969.0,49971.0,46101.0,0.5998326846718581,-0.014168641408097944,0.5,-0.36214256286621094,-0.47523680329322815,0.2338927537202835,-0.07046785205602646,0.03684995323419571,0.4105611741542816,0.24183951318264008,0.19673660397529602,4.255478858947754,6.894920349121094,1.2086913585662842,-5.3055901527404785,53077.0,50557.0,53709.0,50274.0,-0.2891121422766849,0.5257510524841448,0.5
1.538,TAKEOFF,incipient,1.0,0.5538917779922485,-0.0037527994718402624,0.18616105616092682,0.14901329576969147,-0.029223188757896423,0.3960602283477783,-1.0671175718307495,-1.41579270362854,5.0186944007873535,-3.472193956375122,-19.14200210571289,2.2290241718292236,52759.0,54010.0,56175.0,46682.0,-0.3093262338691444,-0.5141179641291785,0.5,-0.3890336751937866,0.5091980695724487,0.2520071268081665,0.03743385151028633,0.06776156276464462,0.4454340934753418,-0.2482226938009262,0.1810334473848343,3.6401257514953613,1.2422233819961548,-8.575275421142578,-2.2793827056884766,51076.0,48556.0,50505.0,46813.0,0.5999301716885961,-0.009153638494696822,0.5,-0.36214256286621094,-0.47523680329322815,0.2338927537202835,-0.07094264030456543,0.03558582812547684,0.4109416604042053,0.38200756907463074,0.15939991176128387,4.146406173706055,3.7050883769989014,-0.46819522976875305,-5.972268581390381,53059.0,50481.0,53243.0,50253.0,-0.293497236408782,0.5233157481104572,0.5
1.558,TAKEOFF,incipient,1.0,0.5538917779922485,-0.0037527994718402624,0.18616105616092682,0.09687776118516922,0.01866970583796501,0.37514081597328186,-1.4257850646972656,-0.6870129108428955,5.197638511657715,-1.7103184461593628,-17.676050186157227,1.8991432189941406,51427.0,53743.0,56966.0,48147.0,-0.3050174786481136,-0.5166859178641775,0.5,-0.3890336751937866,0.5091980695724487,0.2520071268081665,0.05265853926539421,0.054353225976228714,0.43798398971557617,-0.2290077954530716,0.34917712211608887,3.6027119159698486,2.3506033420562744,-5.704073905944824,-2.40997576713562,51055.0,48795.0,50346.0,46382.0,0.5999857306556104,-0.004137995849826823,0.5,-0.36214256286621094,-0.47523680329322815,0.2338927537202835,-0.06614044308662415,0.025098653510212898,0.3922881484031677,0.5480443835258484,0.12851482629776,3.9999842643737793,5.583507061004639,0.17399384081363678,-6.175466537475586,53437.0,51213.0,53022.0,49929.0,-0.29786181854247895,0.5208438701324681,0.5
1.578,TAKEOFF,incipient,1.0,0.5538917779922485,-0.0037527994718402624,0.18616105616092682,0.08153996616601944,0.004865000024437904,0.37146899104118347,-1.3222845792770386,-0.22163888812065125,5.1886396408081055,-1.9340927600860596,-15.214118957519531,2.2965190410614014,53525.0,53859.0,55209.0,48021.0,-0.300687406299499,-0.5192177613418862,0.5,-0.3890336751937866,0.5091980695724487,0.2520071268081665,0.04565580189228058,0.05738472193479538,0.4374619126319885,-0.2072308212518692,0.44210925698280334,3.540181875228882,-2.296905517578125,1.4595962762832642,-1.8455673456192017,51557.0,48382.0,49501.0,46418.0,0.5999993576899842,0.0008779359921930024,0.5,-0.36214256286621094,-0.47523680329322815,0.2338927537202835,-0.06324730068445206,0.018397066742181778,0.38261446356773376,0.7152206301689148,0.0902128517627716,3.8438122272491455,7.489633560180664,4.01210880279541,-5.4839396476745605,53783.0,49855.0,52760.0,51221.0,-0.3022055836449146,0.5183355913053207,0.5
1.598,TAKEOFF,incipient,1.0,0.5538917779922485,-0.0037527994718402624,0.18616105616092682,0.09245412051677704,-0.007836859673261642,0.38118845224380493,-1.1613166332244873,-0.03802499920129776,5.151195049285889,6.719219207763672,-2.70703387260437,1.107043981552124,53525.0,53859.0,55209.0,48021.0,-0.2963363194443342,-0.52171331761628,0.5,-0.3890336751937866,0.5091980695724487,0.2520071268081665,0.048600539565086365,0.05436612665653229,0.43520087003707886,-0.15997596085071564,0.47803744673728943,3.483250856399536,-7.1238298416137695,2.4095871448516846,-0.2707672417163849,50778.0,49868.0,49775.0,44816.0,0.599971051839348,0.005893806476832133,0.5,-0.36764317750930786,-0.47431716322898865,0.2697996497154236,-0.06311477720737457,0.015640290454030037,0.380737841129303,0.8443535566329956,-0.024879567325115204,3.734970808029175,5.16209602355957,10.960776329040527,-5.936425685882568,53745.0,50031.0,52581.0,50852.0,-0.30652822813809316,0.5157910869281488,0.5
1.618,TAKEOFF,incipient,1.0,0.5538917779922485,-0.0037527994718402624,0.18616105616092682,0.08678226917982101,0.0012035103281959891,0.3782197833061218,-1.1199619770050049,0.012251995503902435,5.1873459815979,7.934121131896973,1.7217657566070557,-1.4296045303344727,52453.0,53299.0,55576.0,48259.0,-0.29196452217231933,-0.5241724122773815,0.5,-0.3834352493286133,0.5135872960090637,0.2952060103416443,0.04568463936448097,0.05405179038643837,0.4340877830982208,-0.1991107165813446,0.4140067994594574,3.4515323638916016,3.9040136337280273,-2.510401964187622,-2.6075828075408936,50765.0,48049.0,49684.0,46230.0,0.5999008150819474,0.010909265053848203,0.5,-0.36764317750930786,-0.47431716322898865,0.2697996497154236,-0.058118268847465515,0.009745240211486816,0.37259387969970703,0.9623621702194214,-0.26720699667930603,3.6213481426239014,2.014744997024536,12.116348266601562,-4.940726280212402,53930.0,49955.0,52239.0,51055.0,-0.3108294499201003,0.513210534831825,0.5
1.638,TAKEOFF,incipient,1.0,0.554364800453186,-0.003870954504236579,0.219196617603302,0.08971273899078369,0.004879115615040064,0.3761645257472992,-0.9982041120529175,-0.11484459787607193,5.166871547698975,6.059763431549072,9.762475967407227,-0.16481497883796692,52453.0,53299.0,55576.0,48259.0,-0.28757232002056876,-0.5265948734634506,0.5,-0.3834352493286133,0.5135872960090637,0.2952060103416443,0.048904333263635635,0.05199558660387993,0.42167335748672485,-0.08228333294391632,0.508335530757904,3.3910775184631348,1.3035246133804321,-5.732189178466797,0.5794880390167236,51245.0,50012.0,48713.0,44169.0,0.599788652326504,0.015923961201786338,0.5,-0.36764317750930786,-0.47431716322898865,0.2697996497154236,-0.05641048029065132,0.006442123558372259,0.37010061740875244,1.0196778774261475,-0.5047749280929565,3.521062135696411,1.3334476947784424,11.28266716003418,-4.462527275085449,53687.0,50189.0,52413.0,50536.0,-0.315108948386217,0.510594115366533,0.5
1.658,TAKEOFF,incipient,1.0,0.554364800453186,-0.003870954504236579,0.219196617603302,0.08574516326189041,0.009838750585913658,0.3699488341808319,-0.9122225046157837,-0.287579745054245,5.172314167022705,4.264742851257324,13.926261901855469,-1.8832134008407593,53087.0,52380.0,54725.0,49498.0,-0.28316001995225726,-0.5289805318729955,0.5,-0.3834352493286133,0.5135872960090637,0.2952060103416443,0.04731066897511482,0.05231450870633125,0.416151225566864,0.03383947163820267,0.6542817950248718,3.3665146827697754,4.800307750701904,-8.652447700500488,-2.051342725753784,51089.0,50656.0,48808.0,42982.0,0.5996345714118729,0.020937544452476475,0.5,-0.36764317750930786,-0.47431716322898865,0.2697996497154236,-0.02325506880879402,-0.006045253947377205,0.3921653926372528,1.0751792192459106,-0.7000004649162292,3.435051679611206,2.4358606338500977,5.494631767272949,-4.91728401184082,53031.0,50833.0,52157.0,50885.0,-0.31936642444992797,0.5079420113891628,0.5
1.679,TAKEOFF,incipient,1.0,0.554364800453186,-0.003870954504236579,0.219196617603302,0.09886474907398224,0.008149062283337116,0.3713321387767792,-0.7589205503463745,-0.6250029802322388,5.106356143951416,4.283786773681641,9.290096282958984,-3.0531911849975586,52302.0,52788.0,55070.0,48914.0,-0.2787279303351673,-0.5313292207766048,0.5,-0.3834352493286133,0.5135872960090637,0.2952060103416443,0.045351672917604446,0.05220331996679306,0.40744608640670776,0.1223984807729721,0.8305972814559937,3.3314619064331055,4.006990909576416,-9.690047264099121,-1.9511042833328247,51020.0,49499.0,48812.0,44217.0,0.5994385831064943,0.02594966441552694,0.5,-0.36764317750930786,-0.47431716322898865,0.2697996497154236,-0.016757473349571228,-0.00940854474902153,0.3925694227218628,1.1767796277999878,-0.9987587928771973,3.3450212478637695,0.8418922424316406,-2.033987522125244,-5.424245834350586,51956.0,49901.0,51890.0,51087.0,-0.3236015805638242,0.5052544082505315,0.5
1.699,TAKEOFF,incipient,1.0,0.554364800453186,-0.003870954504236579,0.219196617603302,0.09348493069410324,0.012702809646725655,0.36389267444610596,-0.6788490414619446,-0.6977587938308716,5.055446624755859,2.8592913150787354,5.593681812286377,-4.069805145263672,52302.0,52788.0,55070.0,48914.0,-0.27427636092013763,-0.5336407760285999,0.5,-0.3834352493286133,0.5135872960090637,0.2952060103416443,0.0428147166967392,0.05174921080470085,0.39865192770957947,0.19748444855213165,1.0483709573745728,3.2975122928619385,2.249363899230957,-10.518733024597168,-1.9728699922561646,49747.0,49698.0,50129.0,43679.0,0.5992007011076413,0.030959970802812643,0.5,-0.36459895968437195,-0.4775358736515045,0.3113919198513031,-0.01117042638361454,-0.013931208290159702,0.3813971281051636,1.1514651775360107,-0.9970489740371704,3.2159087657928467,-5.191102504730225,-5.693698883056641,-5.565204620361328,52495.0,49339.0,52114.0,50302.0,-0.32781412074039845,0.5025314937824289,0.5
1.718,TAKEOFF,incipient,1.0,0.554364800453186,-0.003870954504236579,0.219196617603302,0.09573918581008911,0.01517149806022644,0.36219584941864014,-0.6027621626853943,-0.7478045225143433,4.991993427276611,0.5342035889625549,-2.177924156188965,-3.531991958618164,51930.0,52162.0,55390.0,49442.0,-0.2698056228194152,-0.535915036078507,0.5,-0.3777509033679962,0.5181058645248413,0.33579254150390625,0.0396411307156086,0.050963737070560455,0.3895392119884491,0.22694113850593567,1.2331010103225708,3.2520172595977783,-0.8071320652961731,-5.021223068237305,-2.5006680488586426,50475.0,48714.0,49093.0,44960.0,0.5989209420404626,0.03596811345295606,0.5,-0.36459895968437195,-0.4775358736515045,0.3113919198513031,-0.00791864562779665,-0.017384886741638184,0.3770373463630676,1.0547209978103638,-0.8796436190605164,3.106112480163574,-5.41828727722168,-9.010777473449707,-4.74513578414917,52373.0,49994.0,52017.0,49490.0,-0.33200375057273074,0.49977345828449116,0.5
1.738,TAKEOFF,incipient,1.0,0.56403648853302,-0.0014624986797571182,0.2579807639122009,0.09937819093465805,0.013484515249729156,0.35174545645713806,-0.5528456568717957,-0.7379021048545837,4.905954837799072,3.8292200565338135,-4.3399882316589355,-2.3869504928588867,51392.0,53710.0,55713.0,47665.0,-0.2653160284849124,-0.5381518419823471,0.5,-0.3777509033679962,0.5181058645248413,0.33579254150390625,0.03588239103555679,0.05005039647221565,0.37694281339645386,0.19091573357582092,1.3324706554412842,3.2004570960998535,-5.302318572998047,0.36693528294563293,-2.7422409057617188,49813.0,48394.0,49777.0,45251.0,0.5985993254568206,0.040973742355799404,0.5,-0.36459895968437195,-0.4775358736515045,0.3113919198513031,-0.0027575159911066294,-0.02032344415783882,0.37565886974334717,0.9462383389472961,-0.6999057531356812,3.0071582794189453,-8.201114654541016,-11.71563720703125,-4.004447937011719,52347.0,50056.0,51276.0,50130.0,-0.3361701772550643,0.4969804945108999,0.5
1.758,TAKEOFF,incipient,1.0,0.56403648853302,-0.0014624986797571182,0.2579807639122009,0.10168348252773285,0.015557999722659588,0.35294559597969055,-0.5329316258430481,-0.6499653458595276,4.839125633239746,-1.2679005861282349,-8.663104057312012,-2.757589817047119,51392.0,53710.0,55713.0,47665.0,-0.26080789168637003,-0.5403510374137452,0.5,-0.3777509033679962,0.5181058645248413,0.33579254150390625,0.03161151707172394,0.04912082478404045,0.36941367387771606,0.09980528801679611,1.3074203729629517,3.1414880752563477,-5.0710039138793945,5.142834663391113,-3.527343273162842,51083.0,48060.0,48236.0,45729.0,0.5982358738339244,0.045976507676866174,0.5,-0.36459895968437195,-0.4775358736515045,0.3113919198513031,0.006468727253377438,-0.025423502549529076,0.3702338635921478,0.8221678733825684,-0.5634561777114868,2.944443941116333,-6.504737377166748,-10.480350494384766,-4.849262237548828,51497.0,49502.0,52405.0,49498.0,-0.34031310960326916,0.4941527976569122,0.5
1.778,TAKEOFF,incipient,1.0,0.56403648853302,-0.0014624986797571182,0.2579807639122009,0.13166823983192444,0.0010262547293677926,0.36629435420036316,-0.39268600940704346,-0.7526800036430359,4.71677827835083,2.4914069175720215,-1.7365249395370483,-4.034654140472412,52356.0,53439.0,53641.0,49077.0,-0.2562815274894287,-0.5425124686748547,0.5,-0.3777509033679962,0.5181058645248413,0.33579254150390625,0.02727079577744007,0.04846946895122528,0.36272573471069336,0.01578374393284321,1.2012956142425537,3.069361925125122,-6.33636474609375,6.890310287475586,-2.8533058166503906,50333.0,47820.0,48796.0,45924.0,0.5978306125727598,0.05097605978181054,0.5,-0.36459895968437195,-0.4775358736515045,0.3113919198513031,0.007911741733551025,-0.027738172560930252,0.3636195957660675,0.6809180378913879,-0.33828499913215637,2.8531484603881836,-5.754866600036621,-10.400680541992188,-4.682584285736084,52037.0,48959.0,51613.0,50000.0,-0.34443225807519245,0.4912905653452181,0.5
1.8,TAKEOFF,incipient,1.0,0.56403648853302,-0.0014624986797571182,0.2579807639122009,0.12426044791936874,0.026795201003551483,0.36456143856048584,-0.5446040630340576,-0.6303484439849854,4.7259202003479,3.496271848678589,-5.539561748504639,-3.488204002380371,52136.0,52572.0,54308.0,48279.0,-0.25173725223360927,-0.5446359847070997,0.5,-0.3777509033679962,0.5181058645248413,0.33579254150390625,0.01843959651887417,0.04218905419111252,0.3465817868709564,-0.02828645333647728,1.0979160070419312,3.0140089988708496,-1.9399528503417969,3.8819074630737305,-3.043109893798828,50437.0,48171.0,48881.0,45180.0,0.5973835699963137,0.05597204926085258,0.5,-0.36459895968437195,-0.4775358736515045,0.3113919198513031,-0.0027817278169095516,-0.017635030671954155,0.35217440128326416,0.5255374312400818,-0.15463200211524963,2.7582151889801025,-11.039017677307129,-8.725265502929688,-4.076310634613037,51738.0,49546.0,51266.0,50042.0,-0.3485273347908939,0.48839399761212887,0.5
1.818,TAKEOFF,incipient,1.0,0.56403648853302,-0.0014624986797571182,0.2579807639122009,0.11797279119491577,0.01674339547753334,0.35833677649497986,-0.4186343550682068,-0.43090251088142395,4.602878570556641,0.8474609851837158,-8.098406791687012,-4.0331902503967285,51747.0,53978.0,53863.0,47644.0,-0.24717538351020477,-0.546721437101732,0.5,-0.38035571575164795,0.5269427299499512,0.3691779375076294,-0.008052924647927284,0.0689258873462677,0.330626904964447,-0.02828645333647728,1.0979160070419312,3.0140089988708496,-1.9399528503417969,3.8819074630737305,-3.043109893798828,50324.0,47899.0,48767.0,46293.0,0.5968947773475944,0.060964126953197945,0.5,-0.36181747913360596,-0.48049113154411316,0.34838083386421204,-0.0049932305701076984,-0.01780807413160801,0.3431830406188965,0.2160368412733078,0.10330693423748016,2.682544708251953,-8.849188804626465,-6.6292805671691895,-3.864266872406006,51738.0,49546.0,51266.0,50042.0,-0.35259805355276547,0.4854632968935974,0.5
1.838,TAKEOFF,incipient,1.0,0.5773453712463379,-0.0018438702682033181,0.2950117290019989,0.11919103562831879,0.018235355615615845,0.35467657446861267,-0.3826427161693573,-0.3081350326538086,4.533592224121094,3.967386245727539,-6.4113616943359375,-3.0024259090423584,51989.0,53520.0,53840.0,47592.0,-0.24259624014008413,-0.5487686801102032,0.5,-0.38035571575164795,0.5269427299499512,0.3691779375076294,-0.01188300084322691,0.06996795535087585,0.3232956528663635,-0.16525936126708984,1.1138755083084106,2.977952718734741,9.489781379699707,2.394322633743286,-2.6256344318389893,49746.0,48113.0,49501.0,45728.0,0.5963642687874484,0.0659519439714401,0.5,-0.36181747913360596,-0.48049113154411316,0.34838083386421204,-0.0052247256971895695,-0.019724467769265175,0.33371683955192566,0.027577076107263565,0.25662925839424133,2.61319637298584,-5.291757106781006,-7.998865604400635,-4.6473565101623535,51749.0,50447.0,51035.0,49361.0,-0.356644129865533,0.48249866801107005,0.5
1.859,TAKEOFF,incipient,1.0,0.5773453712463379,-0.0018438702682033181,0.2950117290019989,0.1200045719742775,0.019527332857251167,0.35250455141067505,-0.3167015314102173,-0.1513562798500061,4.468507766723633,3.4435782432556152,-8.901081085205078,-3.0977225303649902,51758.0,53332.0,53932.0,47695.0,-0.23800014215141063,-0.5507775706543507,0.5,-0.38035571575164795,0.5269427299499512,0.3691779375076294,-0.01503614243119955,0.06894578039646149,0.31222447752952576,0.025350747630000114,1.062593698501587,2.9743728637695312,13.807653427124023,3.6809284687042236,-1.798327922821045,50433.0,48866.0,49129.0,44532.0,0.5957920813921728,0.07093515172594339,0.5,-0.36181747913360596,-0.48049113154411316,0.34838083386421204,-0.006475302390754223,-0.01967211626470089,0.3265223801136017,-0.0487089566886425,0.41997531056404114,2.5322792530059814,0.12810291349887848,-6.6961565017700195,-4.000235080718994,51749.0,50447.0,51035.0,49361.0,-0.3606652809561392,0.4795003181571719,0.5
1.878,TAKEOFF,incipient,1.0,0.5773453712463379,-0.0018438702682033181,0.2950117290019989,0.12032861262559891,0.020581556484103203,0.34920087456703186,-0.27706384658813477,-0.025804981589317322,4.39864444732666,1.5452725887298584,-2.596449375152588,-3.9163289070129395,52146.0,52469.0,53061.0,49011.0,-0.23338741075727548,-0.5527479683363972,0.5,-0.38035571575164795,0.5269427299499512,0.3691779375076294,-0.017954418435692787,0.06725648790597916,0.30455008149147034,0.4089428186416626,0.9582058787345886,2.9376707077026367,14.500616073608398,4.493292808532715,-1.7739888429641724,50450.0,49017.0,48936.0,44567.0,0.5951782551509239,0.07591340194920544,0.5,-0.36181747913360596,-0.48049113154411316,0.34838083386421204,-0.010587690398097038,-0.029118135571479797,0.3099190294742584,0.024188954383134842,0.5771379470825195,2.43868350982666,0.5456159114837646,-4.577076435089111,-2.9383721351623535,51545.0,49459.0,51901.0,49375.0,-0.364661225793506,0.4764684568812269,0.5
1.899,TAKEOFF,incipient,1.0,0.5773453712463379,-0.0018438702682033181,0.2950117290019989,0.1467810720205307,0.008444206789135933,0.34790506958961487,-0.14851979911327362,-0.09237343072891235,4.255064964294434,0.8634542226791382,-6.9355292320251465,-4.258541584014893,51863.0,53175.0,53248.0,48014.0,-0.22875836833324906,-0.5546797354487628,0.5,-0.38035571575164795,0.5269427299499512,0.3691779375076294,-0.015454785898327827,0.05462423712015152,0.29835397005081177,0.7004058957099915,0.8422330021858215,2.9111275672912598,12.513078689575195,3.006812810897827,-1.2041127681732178,51189.0,48339.0,48164.0,45086.0,0.5945228329629234,0.08088634672019684,0.5,-0.36181747913360596,-0.48049113154411316,0.34838083386421204,-0.012686964124441147,-0.02931446209549904,0.300176203250885,0.041328780353069305,0.6743460297584534,2.3809707164764404,0.8651251792907715,-5.454296112060547,-2.507099151611328,52514.0,49950.0,51140.0,49078.0,-0.3686316851081756,0.47340329607461207,0.5
1.918,TAKEOFF,incipient,1.0,0.5773453712463379,-0.0018438702682033181,0.2950117290019989,0.14555178582668304,0.03511286899447441,0.3507021367549896,-0.3418569266796112,0.02723843976855278,4.235190391540527,0.2901112139225006,-4.931506633758545,-4.663479328155518,51968.0,51800.0,53440.0,48688.0,-0.22411333839485045,-0.5565727369836895,0.5,-0.3793075978755951,0.5301758050918579,0.40033331513404846,-0.019172823056578636,0.05437925085425377,0.2849388122558594,1.0005582571029663,0.6704192161560059,2.8742756843566895,10.142231941223145,7.676002025604248,-1.2774862051010132,51152.0,48365.0,48087.0,45295.0,0.5938258606344587,0.08585363848867676,0.5,-0.3632504940032959,-0.4845684766769409,0.3798985183238983,-0.013250233605504036,-0.03440496698021889,0.28263744711875916,0.10041958838701248,0.7510226368904114,2.3109943866729736,-1.0294554233551025,-2.5957303047180176,-2.923872709274292,52308.0,50467.0,51589.0,48845.0,-0.37257638141182775,0.4703050499559496,0.5
1.938,TAKEOFF,incipient,1.0,0.5887347459793091,-0.00281945220194757,0.32652243971824646,0.13085946440696716,0.016744151711463928,0.3381790816783905,-0.21856458485126495,0.2330751270055771,4.125102996826172,3.57608699798584,-8.356269836425781,-3.327467918395996,51750.0,53194.0,53713.0,46770.0,-0.21945264557493768,-0.5584268406426761,0.5,-0.3793075978755951,0.5301758050918579,0.40033331513404846,-0.0142862219363451,0.04170708358287811,0.2690722942352295,1.1165838241577148,0.5421174764633179,2.8798797130584717,-2.6404078006744385,11.393028259277344,-1.656296730041504,50898.0,47856.0,48745.0,46016.0,0.593087386875683,0.09081493009948274,0.5,-0.3632504940032959,-0.4845684766769409,0.3798985183238983,-0.01579822599887848,-0.03482242301106453,0.27260157465934753,0.09108300507068634,0.7979869842529297,2.2519421577453613,-5.083889007568359,1.480373501777649,-3.230293035507202,52629.0,49800.0,51278.0,49620.0,-0.37649503901667314,0.4671739350561349,0.5
1.958,TAKEOFF,incipient,1.0,0.5887347459793091,-0.00281945220194757,0.32652243971824646,0.1276344209909439,0.014812564477324486,0.3298039734363556,-0.19090011715888977,0.40250885486602783,4.031526565551758,-3.3206887245178223,-9.862120628356934,-2.3924307823181152,51000.0,52631.0,54343.0,47432.0,-0.21477661560101954,-0.5602419168457247,0.5,-0.3793075978755951,0.5301758050918579,0.40033331513404846,-0.022222772240638733,0.04345419257879257,0.25814497470855713,1.0678229331970215,0.36299818754196167,2.866279125213623,-9.161911010742188,9.858691215515137,-2.282611608505249,50436.0,47789.0,49251.0,46386.0,0.5923074632972101,0.09576987481679254,0.5,-0.3632504940032959,-0.4845684766769409,0.3798985183238983,-0.018333064392209053,-0.03504630923271179,0.26331016421318054,0.017573760822415352,0.771785318851471,2.194913625717163,-6.598080158233643,1.7615537643432617,-3.352867364883423,52629.0,49800.0,51278.0,49620.0,-0.38038738405472067,0.464010170203204,0.5
1.978,TAKEOFF,incipient,1.0,0.5887347459793091,-0.00281945220194757,0.32652243971824646,0.1290046125650406,0.009988724254071712,0.322980135679245,-0.1679142266511917,0.5690740346908569,3.9101357460021973,1.332228183746338,-11.068708419799805,-3.183903217315674,50956.0,53103.0,53672.0,47752.0,-0.21008557527249125,-0.5620178387403966,0.5,-0.3793075978755951,0.5301758050918579,0.40033331513404846,-0.024568121880292892,0.042010348290205,0.2546192407608032,1.0678229331970215,0.36299818754196167,2.866279125213623,-9.161911010742188,9.858691215515137,-2.282611608505249,50065.0,48359.0,49572.0,45589.0,0.5914861444065079,0.10071812634835701,0.5,-0.3632504940032959,-0.4845684766769409,0.3798985183238983,-0.018333064392209053,-0.03504630923271179,0.26331016421318054,-0.11119495332241058,0.7242580652236938,2.123513698577881,-6.732900142669678,2.9483022689819336,-3.875344753265381,52231.0,49469.0,51565.0,50202.0,-0.3842531444969178,0.46081397650704004,0.5
2.0,TAKEOFF,incipient,1.0,0.5887347459793091,-0.00281945220194757,0.32652243971824646,0.12393611669540405,0.017961151897907257,0.31301042437553406,-0.22044244408607483,0.7776921987533569,3.878162384033203,-0.669804573059082,-9.030745506286621,-4.759108066558838,51192.0,52756.0,53395.0,48001.0,-0.20537985243779483,-0.5637544822106779,0.5,-0.3793075978755951,0.5301758050918579,0.40033331513404846,-0.013096662238240242,0.023350577801465988,0.23673859238624573,1.0129823684692383,0.06802437454462051,2.8128392696380615,-13.574440956115723,7.552938938140869,-2.295130968093872,51047.0,47987.0,48562.0,46341.0,0.590623487604089,0.10565933886970179,0.5,-0.3632504940032959,-0.4845684766769409,0.3798985183238983,0.016050364822149277,-0.056800585240125656,0.2593099772930145,-0.0634702742099762,0.34653961658477783,2.031184196472168,-5.3374409675598145,1.6431044340133667,-3.7976021766662598,52891.0,48903.0,50423.0,50342.0,-0.38809205017216153,0.45758557734391986,0.5
2.019,TAKEOFF,incipient,1.0,0.5887347459793091,-0.00281945220194757,0.32652243971824646,0.12112182378768921,0.018505193293094635,0.3096853792667389,-0.22644047439098358,0.9624017477035522,3.7976012229919434,-0.4423314034938812,-7.314014434814453,-3.4177029132843018,51100.0,52718.0,53422.0,48259.0,-0.2006597759715066,-0.565451725885654,0.5,-0.3765374422073364,0.528425395488739,0.42596176266670227,-0.00016518049233127385,0.008828243240714073,0.2220410704612732,0.6793283224105835,-0.308015376329422,2.7125372886657715,-9.95523452758789,9.080214500427246,-1.2525337934494019,50944.0,48400.0,49180.0,46057.0,0.5897195531794986,0.11059316704829647,0.5,-0.35554030537605286,-0.4950791001319885,0.40916645526885986,0.020446831360459328,-0.05761730298399925,0.2547401189804077,-0.16696059703826904,0.25388967990875244,1.9474411010742188,-7.845932483673096,1.1612967252731323,-3.1548774242401123,52108.0,49194.0,51065.0,50002.0,-0.39190383278618107,0.4543251983409032,0.5
2.038,TAKEOFF,incipient,1.0,0.6001373529434204,-0.0012575481086969376,0.3579915165901184,0.10970687866210938,0.022265415638685226,0.3013564944267273,-0.25546595454216003,1.1659018993377686,3.73032546043396,-4.370404243469238,-6.6684370040893555,-3.6728756427764893,50765.0,52274.0,53452.0,49186.0,-0.19592567575135253,-0.5671094511479913,0.5,-0.3765374422073364,0.528425395488739,0.42596176266670227,0.0008174067479558289,0.00653646606951952,0.20805098116397858,0.5206347107887268,-0.42324817180633545,2.6955435276031494,-2.0701682567596436,-0.059740543365478516,-2.1957180500030518,51079.0,48389.0,49219.0,46046.0,0.5887744043071017,0.11551926606768906,0.5,-0.35554030537605286,-0.4950791001319885,0.40916645526885986,0.005312640685588121,-0.05044398084282875,0.23151029646396637,-0.3616187572479248,0.380799263715744,1.880542278289795,-10.148704528808594,-3.7893009185791016,-3.2186150550842285,51795.0,49823.0,51880.0,49906.0,-0.39568822594028785,0.4510330673600636,0.5
2.058,TAKEOFF,incipient,1.0,0.6001373529434204,-0.0012575481086969376,0.3579915165901184,0.10228700935840607,0.019763261079788208,0.29001984000205994,-0.2637559175491333,1.2828761339187622,3.627279758453369,-2.2489960193634033,-0.6601794362068176,-4.463610649108887,50765.0,52274.0,53452.0,49186.0,-0.19117788263515373,-0.5687275421422276,0.5,-0.3765374422073364,0.528425395488739,0.42596176266670227,0.004167975392192602,0.006488723214715719,0.20057553052902222,0.2996586561203003,-0.2545653283596039,2.716726064682007,-1.871069312095642,-1.7640116214752197,-1.1159920692443848,50192.0,49679.0,49773.0,45406.0,0.5877881070416671,0.12043729165160486,0.5,-0.35554030537605286,-0.4950791001319885,0.40916645526885986,0.002158939838409424,-0.047092486172914505,0.22310367226600647,-0.5823830366134644,0.4781385660171509,1.8340482711791992,-14.446878433227539,-5.979591369628906,-3.280083656311035,51099.0,49967.0,52578.0,49851.0,-0.3994449651499938,0.4477094144825639,0.5
2.078,TAKEOFF,incipient,1.0,0.6001373529434204,-0.0012575481086969376,0.3579915165901184,0.09777198731899261,0.020420419052243233,0.28309985995292664,-0.25825318694114685,1.3114345073699951,3.5497515201568604,-0.0631318911910057,-2.1025924682617188,-3.911728620529175,51487.0,52399.0,53555.0,48102.0,-0.18641672843770338,-0.5703058857828696,0.5,-0.3765374422073364,0.528425395488739,0.42596176266670227,-0.011473916471004486,0.02311105467379093,0.19135083258152008,0.24693618714809418,-0.16727471351623535,2.6979150772094727,-5.381770610809326,-6.729440689086914,-0.11735545098781586,49572.0,48970.0,50596.0,45638.0,0.5867607303137515,0.12534690008800708,0.5,-0.35554030537605286,-0.4950791001319885,0.40916645526885986,0.0001713474339339882,-0.04461926966905594,0.21483133733272552,-0.8465808033943176,0.6267816424369812,1.771938681602478,-14.772427558898926,-6.110073089599609,-3.217226266860962,51486.0,49310.0,52288.0,50546.0,-0.40317378786349567,0.44435447199257594,0.5
2.098,TAKEOFF,incipient,1.0,0.6001373529434204,-0.0012575481086969376,0.3579915165901184,0.08861398696899414,0.018650930374860764,0.2755309045314789,-0.18099766969680786,1.3303622007369995,3.4457623958587646,6.536181449890137,-1.4550036191940308,-4.067570686340332,50540.0,52971.0,54384.0,47328.0,-0.18164254590757684,-0.571844371762295,0.5,-0.3765374422073364,0.528425395488739,0.42596176266670227,-0.010754275135695934,0.02230176329612732,0.18294307589530945,0.20330314338207245,-0.029688090085983276,2.678483247756958,-0.7561883926391602,-4.856035232543945,-0.3700014352798462,50249.0,49668.0,50345.0,45040.0,0.5856923459248825,0.1302477482531184,0.5,-0.35554030537605286,-0.4950791001319885,0.40916645526885986,-0.0017288075760006905,-0.04510406404733658,0.20221205055713654,-1.100578784942627,0.7440797090530396,1.6900923252105713,-10.142624855041504,-4.893969535827637,-3.1300852298736572,52033.0,49463.0,51890.0,50689.0,-0.4068744334800244,0.4409684743610468,0.5
2.119,TAKEOFF,incipient,1.0,0.6001373529434204,-0.0012575481086969376,0.3579915165901184,0.07646996527910233,0.03531646355986595,0.2690905034542084,-0.23779736459255219,1.3686305284500122,3.436337471008301,0.9473366141319275,0.10205113142728806,-2.8581554889678955,51169.0,51797.0,53607.0,48956.0,-0.17685566870387634,-0.5733428925584625,0.5,-0.3787829577922821,0.5328240990638733,0.4451950788497925,-0.008857316337525845,0.021453341469168663,0.17527829110622406,0.20202642679214478,0.04846023768186569,2.668341875076294,1.6288779973983765,-2.5847275257110596,-0.5827363729476929,50386.0,49050.0,50152.0,45819.0,0.5845830285425393,0.13513949363540123,0.5,-0.3613815903663635,-0.49561792612075806,0.4284248948097229,-0.004123409278690815,-0.042408283799886703,0.1930466592311859,-1.2993113994598389,0.828620970249176,1.6109514236450195,-4.914208889007568,-4.035581588745117,-3.1936042308807373,51751.0,49554.0,52268.0,50741.0,-0.41054664336805785,0.437551658229312,0.5
2.138,TAKEOFF,incipient,1.0,0.6069763898849487,0.0038614990189671516,0.38600125908851624,0.07163039594888687,0.03587841987609863,0.264477401971817,-0.24274931848049164,1.3256102800369263,3.355982542037964,-0.3789074420928955,3.0705461502075195,-5.417322158813477,51169.0,51797.0,53607.0,48956.0,-0.1720564313729123,-0.5748013434424265,0.5,-0.3787829577922821,0.5328240990638733,0.4451950788497925,-0.008104289881885052,0.02037983387708664,0.16903679072856903,0.21584796905517578,0.11702562868595123,2.7163352966308594,4.567930698394775,-0.95875483751297,-0.03334224596619606,51395.0,49329.0,49205.0,45591.0,0.5834328556949353,0.14002179435949522,0.5,-0.3613815903663635,-0.49561792612075806,0.4284248948097229,0.008880093693733215,-0.046572521328926086,0.199374258518219,-1.3275120258331299,0.7643610835075378,1.5366277694702148,0.6354657411575317,-0.5872287750244141,-3.019717216491699,52965.0,49706.0,50810.0,50039.0,-0.4141901608833965,0.43410426239255717,0.5
2.159,TAKEOFF,incipient,1.0,0.6069763898849487,0.0038614990189671516,0.38600125908851624,0.06722455471754074,0.0364082045853138,0.2585870325565338,-0.2217525988817215,1.2948468923568726,3.265974760055542,6.161137104034424,3.247356414794922,-4.4234466552734375,52150.0,52367.0,52748.0,48186.0,-0.16724516932482233,-0.5762196224856556,0.5,-0.3787829577922821,0.5328240990638733,0.4451950788497925,-0.01191782671958208,0.025906777009367943,0.1697530895471573,0.21584796905517578,0.11702562868595123,2.7163352966308594,4.567930698394775,-0.95875483751297,-0.03334224596619606,51290.0,48235.0,49366.0,46565.0,0.5822419077655995,0.14489430921011037,0.5,-0.3613815903663635,-0.49561792612075806,0.4284248948097229,0.009281064383685589,-0.04398210719227791,0.19465051591396332,-1.325002908706665,0.7549123764038086,1.4948298931121826,2.1529078483581543,-1.818522334098816,-2.641486644744873,52769.0,49596.0,50765.0,50360.0,-0.4178047313870992,0.4306265277831288,0.5
2.178,TAKEOFF,incipient,1.0,0.6069763898849487,0.0038614990189671516,0.38600125908851624,0.06293566524982452,0.03680698201060295,0.2521257698535919,-0.07283633202314377,1.2591705322265625,3.183079242706299,10.799955368041992,3.977681875228882,-3.59108567237854,51839.0,52345.0,53045.0,48157.0,-0.16242221881013005,-0.5775976305671572,0.5,-0.3787829577922821,0.5328240990638733,0.4451950788497925,-0.011217453517019749,0.025145599618554115,0.16582641005516052,0.4885215163230896,0.04329901188611984,2.7281653881073,1.6340534687042236,4.3290205001831055,-2.188807964324951,50538.0,48449.0,49637.0,46583.0,0.5810102679877587,0.14975669765587388,0.5,-0.3613815903663635,-0.49561792612075806,0.4284248948097229,0.006623040419071913,-0.03974831849336624,0.18838660418987274,-1.2930914163589478,0.77198725938797,1.4453229904174805,-2.6197686195373535,-1.0210286378860474,-1.486201524734497,52384.0,49352.0,51291.0,50536.0,-0.42139010226328033,0.4271186974536963,0.5
2.198,TAKEOFF,incipient,1.0,0.6069763898849487,0.0038614990189671516,0.38600125908851624,0.05881265923380852,0.036681175231933594,0.24597567319869995,0.018458489328622818,1.2257410287857056,3.1452748775482178,10.224076271057129,-1.3023887872695923,-4.256379127502441,51534.0,53375.0,53249.0,46984.0,-0.15758791689624527,-0.578935271380404,0.5,-0.3787829577922821,0.5328240990638733,0.4451950788497925,-0.010811030864715576,0.011108008213341236,0.17086544632911682,0.5130356550216675,-0.04931974783539772,2.7206997871398926,0.05294455215334892,6.922428131103516,-1.9559279680252075,51763.0,48534.0,48394.0,45921.0,0.5797380224385202,0.15460861987312932,0.5,-0.3613815903663635,-0.49561792612075806,0.4284248948097229,0.0038814840372651815,-0.03540839999914169,0.1827441155910492,-1.3445792198181152,0.8000339269638062,1.413356900215149,-6.62906551361084,0.7415197491645813,-1.2223700284957886,52261.0,49734.0,51480.0,50132.0,-0.4249460229367636,0.4235810165602651,0.5
2.218,TAKEOFF,incipient,1.0,0.6069763898849487,0.0038614990189671516,0.38600125908851624,0.05678145959973335,0.03640957176685333,0.2440129965543747,0.20350854098796844,1.2183408737182617,3.0500800609588623,7.670210361480713,2.465939998626709,-5.0959906578063965,51281.0,52656.0,53318.0,48012.0,-0.1527426014439067,-0.5802324514400654,0.5,-0.3797244727611542,0.533856987953186,0.46485185623168945,-0.013380702584981918,0.012084315530955791,0.1675916314125061,0.4873884618282318,-0.17300520837306976,2.683976173400879,-5.6991472244262695,6.8645477294921875,-1.3520910739898682,51997.0,48263.0,48010.0,46212.0,0.5784252600328565,0.1594497367696864,0.5,-0.35707947611808777,-0.5018692016601562,0.44982194900512695,-0.008580798283219337,-0.022895805537700653,0.18407706916332245,-1.5168201923370361,0.8451675176620483,1.3816004991531372,-7.711697101593018,-3.0621843338012695,-1.2424577474594116,51455.0,48535.0,51883.0,50895.0,-0.42847224489059527,0.4200137323450434,0.5
2.238,TAKEOFF,incipient,1.0,0.6142497658729553,0.006085927598178387,0.40794092416763306,0.05750565975904465,0.025794077664613724,0.21569214761257172,0.43702182173728943,1.1095327138900757,2.8130130767822266,8.363898277282715,2.949148178100586,-3.7296345233917236,52766.0,53421.0,52321.0,47537.0,-0.1478866110835697,-0.5814890800885404,0.5,-0.3797244727611542,0.533856987953186,0.46485185623168945,-0.0128417843952775,0.010451190173625946,0.16071940958499908,0.3593900203704834,-0.31573790311813354,2.656931161880493,-8.233965873718262,5.955455303192139,-1.8318872451782227,50565.0,48097.0,49735.0,46333.0,0.5770720725173908,0.16427971000851932,0.5,-0.35707947611808777,-0.5018692016601562,0.44982194900512695,-0.010150850750505924,-0.020242935046553612,0.18051521480083466,-1.7296475172042847,0.9358433485031128,1.3517333269119263,-7.725001811981201,-6.309268474578857,-1.6402629613876343,51441.0,49487.0,51681.0,50631.0,-0.4319685216834119,0.4164170941191628,0.5
2.258,TAKEOFF,incipient,1.0,0.6142497658729553,0.006085927598178387,0.40794092416763306,0.07600580155849457,-0.00747077539563179,0.24087347090244293,0.7495085000991821,0.9618568420410156,2.7279000282287598,2.044654369354248,4.754221439361572,-3.6390271186828613,52219.0,51573.0,52113.0,48980.0,-0.1430202851917399,-0.5827050695022941,0.5,-0.3797244727611542,0.533856987953186,0.46485185623168945,-0.011841420084238052,0.009156793355941772,0.15784044563770294,0.3593900203704834,-0.31573790311813354,2.656931161880493,-8.233965873718262,5.955455303192139,-1.8318872451782227,50194.0,47737.0,50035.0,46799.0,0.5756785544639852,0.16909820203141268,0.5,-0.35707947611808777,-0.5018692016601562,0.44982194900512695,-0.03179328888654709,0.005271195899695158,0.16062158346176147,-2.051875591278076,1.1807941198349,1.3147194385528564,-4.469625949859619,-3.5135087966918945,-1.9742624759674072,51204.0,49882.0,52657.0,50377.0,-0.43543460896666414,0.4127913532452543,0.5
2.278,TAKEOFF,incipient,1.0,0.6142497658729553,0.006085927598178387,0.40794092416763306,0.07297888398170471,-0.011181979440152645,0.23646947741508484,0.8764898180961609,0.8940672874450684,2.5880041122436523,0.13274012506008148,-2.088515520095825,-3.5848307609558105,51297.0,52323.0,52897.0,48084.0,-0.13814396386725478,-0.5838803346979949,0.5,-0.3797244727611542,0.533856987953186,0.46485185623168945,0.017923489212989807,-0.014684063382446766,0.14308872818946838,0.23837602138519287,-0.7884204983711243,2.4853265285491943,-7.250968933105469,-1.010008692741394,-1.0447843074798584,51323.0,47887.0,49041.0,46928.0,0.5742448032631309,0.17390487608255276,0.5,-0.35707947611808777,-0.5018692016601562,0.44982194900512695,-0.0261783879250288,0.0057838899083435535,0.15587306022644043,-2.099921703338623,1.2426787614822388,1.273703932762146,3.1462457180023193,-3.8299787044525146,-2.7363009452819824,51992.0,49833.0,51898.0,50471.0,-0.4388702645016935,0.40913676311988095,0.5
2.3,TAKEOFF,incipient,1.0,0.6142497658729553,0.006085927598178387,0.40794092416763306,0.0681837797164917,-0.008193278685212135,0.2330816388130188,0.8600921630859375,0.9438753128051758,2.5596354007720947,-4.454468727111816,-8.21588134765625,-5.234553813934326,49426.0,52923.0,54277.0,47432.0,-0.1332579879075148,-0.5850147935384545,0.5,-0.3797244727611542,0.533856987953186,0.46485185623168945,0.026472734287381172,-0.01970689184963703,0.130380779504776,0.09964930266141891,-0.7517146468162537,2.4632983207702637,-5.275551795959473,-5.61270809173584,-0.8377663493156433,51295.0,48675.0,49304.0,46282.0,0.5727709191171425,0.17869939623206285,0.5,-0.35707947611808777,-0.5018692016601562,0.44982194900512695,-0.0456235408782959,0.029512925073504448,0.14574255049228668,-1.9277405738830566,1.1822352409362793,1.2467291355133057,10.031478881835938,3.39652681350708,-1.9608047008514404,53033.0,50375.0,51220.0,49602.0,-0.4422752481766621,0.40545357915582875,0.5
2.318,TAKEOFF,incipient,1.0,0.6142497658729553,0.006085927598178387,0.40794092416763306,0.06738758832216263,-0.014615601859986782,0.22312241792678833,0.7543320059776306,1.0677978992462158,2.436030864715576,-11.870316505432129,-7.177165985107422,-3.3067901134490967,50431.0,52585.0,53448.0,48178.0,-0.12836269878466566,-0.5861083667383679,0.5,-0.37338998913764954,0.528671145439148,0.4786616861820221,0.02908990904688835,-0.020037468522787094,0.12844763696193695,-0.14567945897579193,-0.3461628556251526,2.524369716644287,-4.1639323234558105,-12.348758697509766,-0.3060331642627716,50950.0,49113.0,49785.0,45786.0,0.5712570050331541,0.18348142739948073,0.5,-0.3675215542316437,-0.495649516582489,0.46397507190704346,-0.050049055367708206,0.03613363951444626,0.14090044796466827,-1.8146648406982422,1.1919506788253784,1.2311042547225952,16.071107864379883,6.261376857757568,-0.4616723358631134,53166.0,49685.0,50932.0,50869.0,-0.4456493220233338,0.401742058764256,0.5
2.338,TAKEOFF,incipient,1.0,0.625186562538147,0.0003566638333722949,0.4380224943161011,0.06363784521818161,-0.01857186108827591,0.2133951038122177,0.5391795039176941,1.2536031007766724,2.321737289428711,-12.533539772033691,-8.37695598602295,-4.585275173187256,50431.0,52585.0,53448.0,48178.0,-0.12345843862173336,-0.5871609778698544,0.5,-0.37338998913764954,0.528671145439148,0.4786616861820221,-0.004643058404326439,-0.002538034226745367,0.12989643216133118,-0.1618807017803192,-0.1712764948606491,2.4632768630981445,-4.529783248901367,-12.857317924499512,-0.8211774826049805,49821.0,49458.0,50772.0,45042.0,0.569703166815921,0.18825063537717684,0.5,-0.3675215542316437,-0.495649516582489,0.46397507190704346,-0.060348547995090485,0.045455023646354675,0.13120542466640472,-1.4792284965515137,1.0159246921539307,1.2055721282958984,14.859905242919922,13.172386169433594,-0.5295317769050598,52977.0,50238.0,51686.0,49951.0,-0.4489922502337049,0.39800246133670336,0.5
2.359,TAKEOFF,incipient,1.0,0.625186562538147,0.0003566638333722949,0.4380224943161011,0.05959302932024002,-0.019216859713196754,0.20486220717430115,0.2856568396091461,1.4070817232131958,2.1895391941070557,-10.977757453918457,-6.1599626541137695,-2.0633537769317627,50257.0,52603.0,53590.0,48086.0,-0.11854555016871396,-0.5881725533677995,0.5,-0.37338998913764954,0.528671145439148,0.4786616861820221,0.007459400221705437,-0.01039137877523899,0.11280618607997894,-0.22681909799575806,0.10568869858980179,2.456395149230957,-1.9101380109786987,-12.087411880493164,-0.1445896029472351,50647.0,49305.0,50346.0,45672.0,0.5681095130604251,0.19300668685371153,0.5,-0.3675215542316437,-0.495649516582489,0.46397507190704346,-0.0638822540640831,0.04413238912820816,0.11614201962947845,-1.186755895614624,0.7973234057426453,1.1998790502548218,12.488348960876465,16.383880615234375,-0.10058006644248962,53383.0,50151.0,51466.0,50771.0,-0.4523037991764851,0.39423504822696537,0.5
2.378,TAKEOFF,incipient,1.0,0.625186562538147,0.0003566638333722949,0.4380224943161011,0.05145633965730667,-0.020876899361610413,0.20317794382572174,0.07916200160980225,1.5108562707901,2.1387083530426025,-10.974971771240234,-5.2525200843811035,-3.7640838623046875,51973.0,53804.0,52059.0,46533.0,-0.11362437677861932,-0.5891430225349956,0.5,-0.37338998913764954,0.528671145439148,0.4786616861820221,0.007319942582398653,-0.009681260213255882,0.10898228734731674,-0.25366276502609253,0.3264356255531311,2.4538474082946777,-0.8885504007339478,-8.467720031738281,-0.1725364327430725,51680.0,48841.0,49332.0,46300.0,0.5664761551442848,0.19774924943712954,0.5,-0.3675215542316437,-0.495649516582489,0.46397507190704346,-0.06805220246315002,0.05038578063249588,0.11163841933012009,-0.9550167322158813,0.4801449775695801,1.1949036121368408,9.492990493774414,16.296415328979492,-0.5189183950424194,53416.0,49597.0,51861.0,51058.0,-0.45558373741342495,0.39044008273282527,0.5
2.398,TAKEOFF,incipient,1.0,0.625186562538147,0.0003566638333722949,0.4380224943161011,0.04635714367032051,-0.021162768825888634,0.1974705159664154,-0.13419266045093536,1.5928515195846558,2.0750746726989746,-5.7883782386779785,-2.1150689125061035,-3.4974231719970703,52335.0,53240.0,51906.0,47661.0,-0.10869526238348075,-0.5900723175470836,0.5,-0.37338998913764954,0.528671145439148,0.4786616861820221,0.0063427588902413845,-0.008881190791726112,0.10713467746973038,-0.22906561195850372,0.3982580006122589,2.39982533454895,-0.6696417927742004,-4.358529567718506,0.9356533885002136,51500.0,49013.0,49562.0,46122.0,0.564803207219972,0.20247799167819025,0.5,-0.3675215542316437,-0.495649516582489,0.46397507190704346,-0.06944205611944199,0.05174115300178528,0.10141752660274506,-0.7804866433143616,0.15776468813419342,1.1881320476531982,9.175100326538086,16.65625,-0.7589635848999023,53294.0,49839.0,51995.0,51426.0,-0.4588318357154907,0.386617830077653,0.5
2.419,TAKEOFF,incipient,1.0,0.625186562538147,0.0003566638333722949,0.4380224943161011,0.04331372678279877,-0.017126839607954025,0.18069513142108917,-0.2824627459049225,1.592401385307312,1.9801342487335205,2.340620756149292,1.2177834510803223,-3.4018771648406982,51719.0,52826.0,52799.0,48316.0,-0.10375855147031222,-0.5909603734572924,0.5,-0.37450549006462097,0.5290384888648987,0.4881592094898224,0.013597913086414337,-0.00954962708055973,0.0932021364569664,-0.2087400257587433,0.43456199765205383,2.4138808250427246,0.30880942940711975,2.3674559593200684,0.7565582990646362,51238.0,49150.0,50256.0,46173.0,0.5630907862068334,0.20719258309353208,0.5,-0.37482839822769165,-0.4931875765323639,0.4733296036720276,-0.06929271668195724,0.05373331904411316,0.09430409967899323,-0.6065449118614197,-0.13420282304286957,1.171463966369629,7.7726006507873535,12.359855651855469,-0.8694093227386475,53421.0,50687.0,52177.0,50657.0,-0.462047867078885,0.3827685573918696,0.5
2.439,TAKEOFF,incipient,1.0,0.6284385919570923,-0.0004624242428690195,0.45557788014411926,0.037829868495464325,-0.0138505008071661,0.16900020837783813,-0.28683802485466003,1.5889875888824463,1.8744149208068848,1.6293303966522217,2.0320706367492676,-1.3411271572113037,52540.0,52707.0,52105.0,48651.0,-0.09881458905703487,-0.5918071282009785,0.5,-0.37450549006462097,0.5290384888648987,0.4881592094898224,0.012135249562561512,-0.00890271831303835,0.0854274109005928,-0.23509274423122406,0.358778715133667,2.3580992221832275,-2.573357105255127,4.683783054351807,-0.37987664341926575,51886.0,48314.0,49583.0,47332.0,0.5613390117829195,0.21189269418876966,0.5,-0.37482839822769165,-0.4931875765323639,0.4733296036720276,-0.06745339184999466,0.05579964444041252,0.09328262507915497,-0.43248897790908813,-0.36422404646873474,1.1667959690093994,10.346498489379883,8.607868194580078,-0.4882878065109253,53877.0,51304.0,51668.0,49963.0,-0.46523160674091174,0.378892533694278,0.5
