timestamp_sec,flight_state,fault_type,fault_motor_health,cf1_X,cf1_Y,cf1_Z,cf1_VelX,cf1_VelY,cf1_VelZ,cf1_Roll,cf1_Pitch,cf1_Yaw,cf1_GyroX,cf1_GyroY,cf1_GyroZ,cf1_Motor1,cf1_Motor2,cf1_Motor3,cf1_Motor4,cf1_targ_x,cf1_targ_y,cf1_targ_z,cf2_X,cf2_Y,cf2_Z,cf2_VelX,cf2_VelY,cf2_VelZ,cf2_Roll,cf2_Pitch,cf2_Yaw,cf2_GyroX,cf2_GyroY,cf2_GyroZ,cf2_Motor1,cf2_Motor2,cf2_Motor3,cf2_Motor4,cf2_targ_x,cf2_targ_y,cf2_targ_z,cf3_X,cf3_Y,cf3_Z,cf3_VelX,cf3_VelY,cf3_VelZ,cf3_Roll,cf3_Pitch,cf3_Yaw,cf3_GyroX,cf3_GyroY,cf3_GyroZ,cf3_Motor1,cf3_Motor2,cf3_Motor3,cf3_Motor4,cf3_targ_x,cf3_targ_y,cf3_targ_z
0.006,TAKEOFF,intermittent,1.0,0.6000080704689026,0.011634145863354206,-0.0008241482428275049,0.0,0.0,0.0,0.0,0.0,0.0,0.0,0.0,0.0,0.0,0.0,0.0,0.0,0.6,0.0,0.5,-0.4200570285320282,0.5818041563034058,0.004334981553256512,0.0,0.0,0.0,0.0,0.0,0.0,0.0,0.0,0.0,0.0,0.0,0.0,0.0,-0.3000025448675481,0.51961377298239,0.5,-0.45825478434562683,-0.5464245676994324,0.005699401721358299,0.0,0.0,0.0,0.0,0.0,0.0,0.0,0.0,0.0,0.0,0.0,0.0,0.0,-0.29999491024331576,-0.5196181808098181,0.5
0.022,TAKEOFF,intermittent,1.0,0.5955098867416382,0.010994329117238522,0.0014585419557988644,-0.0017910279566422105,-0.0011283537605777383,0.003352951956912875,0.3370681703090668,0.22250355780124664,0.19070255756378174,-0.09395474940538406,0.11758916825056076,0.09306193143129349,0.0,0.0,0.0,0.0,0.6,0.0,0.5,-0.4146343469619751,0.5758190155029297,0.0038734993431717157,-0.004795506130903959,0.0011477326042950153,-0.004612854216247797,0.3473418354988098,-1.3433438539505005,0.8157521486282349,0.12480325251817703,0.13696926832199097,-0.08328857272863388,0.0,0.0,0.0,0.0,-0.3000025448675481,0.51961377298239,0.5,-0.45825478434562683,-0.5464245676994324,0.005699401721358299,0.013173826970160007,0.0003706520365085453,-0.00805974006652832,0.11842310428619385,-0.8267343640327454,-1.3963361978530884,-0.03951164707541466,-0.023371173068881035,-0.02401869371533394,0.0,0.0,0.0,0.0,-0.29999491024331576,-0.5196181808098181,0.5
0.036,TAKEOFF,intermittent,1.0,0.5955098867416382,0.010994329117238522,0.0014585419557988644,-0.0014919200912117958,-0.002738132607191801,-0.0007365823839791119,0.34224560856819153,0.21901443600654602,0.22651232779026031,0.12167584896087646,0.17867450416088104,0.2496522068977356,0.0,0.0,0.0,0.0,0.6,0.0,0.5,-0.4146343469619751,0.5758190155029297,0.0038734993431717157,-0.001892166561447084,-0.0060202195309102535,-0.0028567861299961805,0.3880801200866699,-1.3565137386322021,0.7777065634727478,0.15175946056842804,-0.2808731198310852,0.23584291338920593,0.0,0.0,0.0,0.0,-0.3000025448675481,0.51961377298239,0.5,-0.45825478434562683,-0.5464245676994324,0.005699401721358299,0.013527700677514076,0.0005145854083821177,-0.008676384575664997,0.11720846593379974,-0.8271923065185547,-1.3950769901275635,0.1282094568014145,-0.036564916372299194,0.05812518298625946,0.0,0.0,0.0,0.0,-0.29999491024331576,-0.5196181808098181,0.5
0.056,TAKEOFF,intermittent,1.0,0.5955098867416382,0.010994329117238522,0.0014585419557988644,-0.001740803592838347,-0.0008649819064885378,0.0027020163834095,0.34224560856819153,0.21901443600654602,0.22651232779026031,0.12167584896087646,0.17867450416088104,0.2496522068977356,0.0,0.0,0.0,0.0,0.6,0.0,0.5,-0.4146343469619751,0.5758190155029297,0.0038734993431717157,-0.003030946012586355,-0.00443340465426445,-0.0007470292039215565,0.37260565161705017,-1.34312903881073,0.7787370681762695,0.06291007250547409,0.06511033326387405,-0.1969308853149414,0.0,0.0,0.0,0.0,-0.3000025448675481,0.51961377298239,0.5,-0.45825478434562683,-0.5464245676994324,0.005699401721358299,0.013527700677514076,0.0005145854083821177,-0.008676384575664997,0.11720846593379974,-0.8271923065185547,-1.3950769901275635,0.1282094568014145,-0.036564916372299194,0.05812518298625946,0.0,0.0,0.0,0.0,-0.29999491024331576,-0.5196181808098181,0.5
0.076,TAKEOFF,intermittent,1.0,0.5953458547592163,0.010311486199498177,0.0007426550728268921,-0.0016025806544348598,0.0006198189803399146,0.0059757656417787075,0.324947327375412,0.21591342985630035,0.3194811940193176,-0.12295687198638916,-0.13089695572853088,0.24022991955280304,0.0,0.0,0.0,0.0,0.6,0.0,0.5,-0.4180533289909363,0.5779204964637756,0.003474562196061015,-0.0030847068410366774,-0.004522227216511965,-0.0007656599045731127,0.3749827742576599,-1.3449598550796509,0.7792591452598572,0.01802077144384384,-0.07596325129270554,0.12268176674842834,0.0,0.0,0.0,0.0,-0.3000025448675481,0.51961377298239,0.5,-0.4583285450935364,-0.5481224656105042,0.0059556784108281136,0.007004112470895052,-0.008311516605317593,-0.00406456645578146,0.19215276837348938,-0.77361661195755,-1.4230507612228394,0.15764035284519196,0.28778785467147827,-0.03137243911623955,0.0,0.0,0.0,0.0,-0.29999491024331576,-0.5196181808098181,0.5
0.096,TAKEOFF,intermittent,1.0,0.5953458547592163,0.010311486199498177,0.0007426550728268921,-0.0014306160155683756,-0.0034584482200443745,-0.00041774354758672416,0.35889628529548645,0.21873591840267181,0.3401181399822235,0.175944522023201,-0.262988805770874,0.048812031745910645,0.0,0.0,0.0,0.0,0.6,0.0,0.5,-0.4180533289909363,0.5779204964637756,0.003474562196061015,-0.009804781526327133,0.0014752602437511086,0.005519072525203228,0.32301145792007446,-1.2869387865066528,0.8331923484802246,0.23657266795635223,0.01750948280096054,-0.016820961609482765,0.0,0.0,0.0,0.0,-0.3000025448675481,0.51961377298239,0.5,-0.4583285450935364,-0.5481224656105042,0.0059556784108281136,0.007205689791589975,-0.008506735786795616,-0.0040214406326413155,0.1930227428674698,-0.7744992971420288,-1.423289179801941,0.06947590410709381,-0.008558431640267372,0.08553148061037064,0.0,0.0,0.0,0.0,-0.29999491024331576,-0.5196181808098181,0.5
0.116,TAKEOFF,intermittent,1.0,0.5953458547592163,0.010311486199498177,0.0007426550728268921,-0.0012327898293733597,-0.004777958616614342,-0.0035241683945059776,0.3719537556171417,0.21631240844726562,0.35914453864097595,-0.12219031900167465,-0.2083710879087448,-0.12609905004501343,0.0,0.0,0.0,0.0,0.6,0.0,0.5,-0.4180533289909363,0.5779204964637756,0.003474562196061015,-0.012839646078646183,0.005128424149006605,0.010328791104257107,0.2932456433773041,-1.2672457695007324,0.878692090511322,-0.02047453448176384,-0.10851671546697617,0.08502420037984848,0.0,0.0,0.0,0.0,-0.3000025448675481,0.51961377298239,0.5,-0.4583285450935364,-0.5481224656105042,0.0059556784108281136,0.005095779430121183,-0.002146677114069462,-0.0036551670636981726,0.13487613201141357,-0.7546197772026062,-1.4078447818756104,-0.11180143058300018,0.12553425133228302,0.014653262682259083,0.0,0.0,0.0,0.0,-0.29999491024331576,-0.5196181808098181,0.5
0.136,TAKEOFF,intermittent,1.0,0.5953458547592163,0.010311486199498177,0.0007426550728268921,-0.00142086751293391,-0.004260738845914602,-0.0007441907073371112,0.36024799942970276,0.21639375388622284,0.4009639620780945,-0.1656932830810547,0.0711025595664978,-0.3157280683517456,0.0,0.0,0.0,0.0,0.6,0.0,0.5,-0.4180533289909363,0.5779204964637756,0.003474562196061015,0.0005584890604950488,-0.007955615408718586,0.0008608282078057528,0.4062229096889496,-1.3750884532928467,0.8421022295951843,0.06619564443826675,-0.3426394760608673,-0.03115219809114933,0.0,0.0,0.0,0.0,-0.3000025448675481,0.51961377298239,0.5,-0.4583285450935364,-0.5481224656105042,0.0059556784108281136,0.00026776452432386577,-0.0025843451730906963,-0.004474753513932228,0.13425622880458832,-0.7555057406425476,-1.4077765941619873,0.11182993650436401,0.1001601591706276,0.07365041971206665,0.0,0.0,0.0,0.0,-0.29999491024331576,-0.5196181808098181,0.5
0.156,TAKEOFF,intermittent,1.0,0.5953458547592163,0.010311486199498177,0.0007426550728268921,0.012849117629230022,-0.006394966971129179,-0.0011812382144853473,0.3451717793941498,0.11746441572904587,0.36739715933799744,0.075685054063797,0.18831437826156616,0.28328651189804077,0.0,0.0,0.0,0.0,0.6,0.0,0.5,-0.4180533289909363,0.5779204964637756,0.003474562196061015,0.0007053592125885189,-0.007944414392113686,0.0006601916393265128,0.40686312317848206,-1.3724253177642822,0.8430226445198059,0.2634804844856262,-0.2459506392478943,-0.16579867899417877,0.0,0.0,0.0,0.0,-0.3000025448675481,0.51961377298239,0.5,-0.4583285450935364,-0.5481224656105042,0.0059556784108281136,0.002008127747103572,-0.00423980038613081,-0.0032927251886576414,0.1613854318857193,-0.7613682150840759,-1.4297083616256714,0.09910880029201508,-0.41557207703590393,0.026489099487662315,0.0,0.0,0.0,0.0,-0.29999491024331576,-0.5196181808098181,0.5
0.177,TAKEOFF,intermittent,1.0,0.5995877981185913,0.010917826555669308,-0.0003115221334155649,0.01015411876142025,-0.0009892458328977227,-0.001083468203432858,0.3451717793941498,0.11746441572904587,0.36739715933799744,0.075685054063797,0.18831437826156616,0.28328651189804077,0.0,0.0,0.0,0.0,0.6,0.0,0.5,-0.4171784520149231,0.5773446559906006,0.003917509689927101,0.0006303347763605416,-0.008223587647080421,0.0007257207180373371,0.40881481766700745,-1.3739155530929565,0.8419902324676514,0.021335743367671967,-0.20266607403755188,0.08156891167163849,0.0,0.0,0.0,0.0,-0.3000025448675481,0.51961377298239,0.5,-0.4605385661125183,-0.5458548069000244,0.00583605607971549,0.0012931092642247677,-0.0033661702182143927,-0.0033986212220042944,0.14122045040130615,-0.7162892818450928,-1.4820139408111572,0.08693289011716843,0.13047407567501068,0.16005563735961914,0.0,0.0,0.0,0.0,-0.29999491024331576,-0.5196181808098181,0.5
0.196,TAKEOFF,intermittent,1.0,0.5995877981185913,0.010917826555669308,-0.0003115221334155649,-0.004384974017739296,-0.008272741921246052,-0.004008878953754902,0.307251900434494,0.14573240280151367,0.40712517499923706,0.09922178834676743,-0.18361543118953705,-0.18076735734939575,0.0,0.0,0.0,0.0,0.6,0.0,0.5,-0.4171784520149231,0.5773446559906006,0.003917509689927101,0.0007053284207358956,-0.008595929481089115,0.000889248272869736,0.4103274941444397,-1.3737365007400513,0.8415761590003967,-0.2521155774593353,0.33862391114234924,-0.04344167932868004,0.0,0.0,0.0,0.0,-0.3000025448675481,0.51961377298239,0.5,-0.4605385661125183,-0.5458548069000244,0.00583605607971549,0.0012931092642247677,-0.0033661702182143927,-0.0033986212220042944,0.14189451932907104,-0.7157267928123474,-1.48056161403656,-0.033043209463357925,0.07867247611284256,0.2698163688182831,0.0,0.0,0.0,0.0,-0.29999491024331576,-0.5196181808098181,0.5
0.217,TAKEOFF,intermittent,1.0,0.5995877981185913,0.010917826555669308,-0.0003115221334155649,0.005408402532339096,-0.019205525517463684,-0.002125977771356702,0.49245554208755493,0.1571275293827057,0.29509592056274414,-0.07463373243808746,-0.10206311196088791,0.1882016509771347,0.0,0.0,0.0,0.0,0.6,0.0,0.5,-0.4171784520149231,0.5773446559906006,0.003917509689927101,0.0179764237254858,-0.019397733733057976,-0.010277105495333672,0.5003790259361267,-1.5123858451843262,0.7925181984901428,0.020361827686429024,0.15737958252429962,-0.018548019230365753,0.0,0.0,0.0,0.0,-0.3000025448675481,0.51961377298239,0.5,-0.4605385661125183,-0.5458548069000244,0.00583605607971549,0.0010074293240904808,-0.003878166899085045,-0.0033229452092200518,0.1418803483247757,-0.7164416909217834,-1.479161262512207,0.04481969401240349,0.1239309012889862,0.15447531640529633,0.0,0.0,0.0,0.0,-0.29999491024331576,-0.5196181808098181,0.5
0.237,TAKEOFF,intermittent,1.0,0.5995877981185913,0.010917826555669308,-0.0003115221334155649,0.003898137016221881,-0.019944291561841965,-9.895512630464509e-05,0.49245554208755493,0.1571275293827057,0.29509592056274414,-0.07463373243808746,-0.10206311196088791,0.1882016509771347,0.0,0.0,0.0,0.0,0.6,0.0,0.5,-0.4171784520149231,0.5773446559906006,0.003917509689927101,0.018597276881337166,-0.02003001980483532,-0.010066958144307137,0.5003452897071838,-1.512820839881897,0.7931349277496338,0.1363072246313095,-0.2960909605026245,0.21123617887496948,0.0,0.0,0.0,0.0,-0.3000025448675481,0.51961377298239,0.5,-0.4605385661125183,-0.5458548069000244,0.00583605607971549,0.0010074293240904808,-0.003878166899085045,-0.0033229452092200518,0.14287693798542023,-0.716498076915741,-1.4779447317123413,-0.2683188319206238,0.1010221540927887,-0.03773494064807892,0.0,0.0,0.0,0.0,-0.29999491024331576,-0.5196181808098181,0.5
0.257,TAKEOFF,intermittent,1.0,0.5995877981185913,0.010917826555669308,-0.0003115221334155649,0.0005629225051961839,-0.010810566134750843,-0.0018000364070758224,0.4165053963661194,0.20442573726177216,0.32239264249801636,0.18424776196479797,-0.14677894115447998,-0.2722886800765991,0.0,0.0,0.0,0.0,0.6,0.0,0.5,-0.4171784520149231,0.5773446559906006,0.003917509689927101,0.005781347397714853,-0.009799938648939133,-0.001928078942000866,0.413179486989975,-1.407413125038147,0.7811334729194641,-0.0034100681077688932,0.1792839616537094,0.1665944904088974,0.0,0.0,0.0,0.0,-0.3000025448675481,0.51961377298239,0.5,-0.4605385661125183,-0.5458548069000244,0.00583605607971549,-0.0002531259960960597,-0.0022364044561982155,-0.0029814003501087427,0.12267909198999405,-0.7022284865379333,-1.4927034378051758,-0.018210049718618393,-0.3168012797832489,0.14715737104415894,0.0,0.0,0.0,0.0,-0.29999491024331576,-0.5196181808098181,0.5
0.276,TAKEOFF,intermittent,1.0,0.5995877981185913,0.010917826555669308,-0.0003115221334155649,0.0005629225051961839,-0.010810566134750843,-0.0018000364070758224,0.4165053963661194,0.20442573726177216,0.32239264249801636,0.18424776196479797,-0.14677894115447998,-0.2722886800765991,0.0,0.0,0.0,0.0,0.6,0.0,0.5,-0.4171784520149231,0.5773446559906006,0.003917509689927101,0.005781347397714853,-0.009799938648939133,-0.001928078942000866,0.413179486989975,-1.407413125038147,0.7811334729194641,-0.0034100681077688932,0.1792839616537094,0.1665944904088974,0.0,0.0,0.0,0.0,-0.3000025448675481,0.51961377298239,0.5,-0.4605385661125183,-0.5458548069000244,0.00583605607971549,-0.0002531259960960597,-0.0022364044561982155,-0.0029814003501087427,0.12267909198999405,-0.7022284865379333,-1.4927034378051758,-0.018210049718618393,-0.3168012797832489,0.14715737104415894,0.0,0.0,0.0,0.0,-0.29999491024331576,-0.5196181808098181,0.5
0.298,TAKEOFF,intermittent,1.0,0.5958980917930603,0.00809464231133461,-0.0005027948063798249,0.001659311237744987,-0.012383721768856049,-0.0038809766992926598,0.4271577000617981,0.19558531045913696,0.30662035942077637,0.41844868659973145,-0.16339288651943207,0.2815193831920624,0.0,0.0,0.0,0.0,0.6,0.0,0.5,-0.4190317988395691,0.5793889760971069,0.0035731690004467964,0.0017963993595913053,-0.0006819789996370673,0.0009153737919405103,0.33965811133384705,-1.3745899200439453,0.868747889995575,0.09098423272371292,0.1360779106616974,-0.22229871153831482,0.0,0.0,0.0,0.0,-0.3000025448675481,0.51961377298239,0.5,-0.4606587886810303,-0.5458030700683594,0.005571647081524134,-0.0006273768958635628,-0.0024941384326666594,-0.003120299195870757,0.12269436568021774,-0.7001116275787354,-1.491100788116455,-0.04696621373295784,-0.05050515756011009,0.19246792793273926,0.0,0.0,0.0,0.0,-0.29999491024331576,-0.5196181808098181,0.5
0.319,TAKEOFF,intermittent,1.0,0.5958980917930603,0.00809464231133461,-0.0005027948063798249,0.001755135483108461,-0.013071136549115181,-0.0033482082653790712,0.4309162199497223,0.19445356726646423,0.3073901832103729,0.15679000318050385,0.30900612473487854,0.06987471133470535,0.0,0.0,0.0,0.0,0.6,0.0,0.5,-0.4190317988395691,0.5793889760971069,0.0035731690004467964,0.006201945245265961,-0.006925046443939209,4.67652062070556e-05,0.3946499526500702,-1.4144972562789917,0.8527694344520569,-0.19089168310165405,0.05956271290779114,0.1017906591296196,0.0,0.0,0.0,0.0,-0.3000025448675481,0.51961377298239,0.5,-0.4606587886810303,-0.5458030700683594,0.005571647081524134,-0.0015491455560550094,-0.007814401760697365,-0.007147587835788727,0.1656058132648468,-0.6976536512374878,-1.521826982498169,0.09857414662837982,0.015924815088510513,-0.06643922626972198,0.0,0.0,0.0,0.0,-0.29999491024331576,-0.5196181808098181,0.5
0.337,TAKEOFF,intermittent,1.0,0.5958980917930603,0.00809464231133461,-0.0005027948063798249,0.001755135483108461,-0.013071136549115181,-0.0033482082653790712,0.4309162199497223,0.19445356726646423,0.3073901832103729,0.15679000318050385,0.30900612473487854,0.06987471133470535,0.0,0.0,0.0,0.0,0.6,0.0,0.5,-0.4190317988395691,0.5793889760971069,0.0035731690004467964,0.006201945245265961,-0.006925046443939209,4.67652062070556e-05,0.3946499526500702,-1.4144972562789917,0.8527694344520569,-0.19089168310165405,0.05956271290779114,0.1017906591296196,0.0,0.0,0.0,0.0,-0.3000025448675481,0.51961377298239,0.5,-0.4606587886810303,-0.5458030700683594,0.005571647081524134,-0.0015491455560550094,-0.007814401760697365,-0.007147587835788727,0.1656058132648468,-0.6976536512374878,-1.521826982498169,0.09857414662837982,0.015924815088510513,-0.06643922626972198,0.0,0.0,0.0,0.0,-0.29999491024331576,-0.5196181808098181,0.5
0.359,TAKEOFF,intermittent,1.0,0.5958980917930603,0.00809464231133461,-0.0005027948063798249,0.0025293927174061537,-0.013693146407604218,-0.0031216542702168226,0.43152090907096863,0.1864224523305893,0.2850111722946167,0.3016211986541748,0.16863633692264557,0.08376214653253555,0.0,0.0,0.0,0.0,0.6,0.0,0.5,-0.4190317988395691,0.5793889760971069,0.0035731690004467964,0.0016023475909605622,-0.001481439103372395,0.00670022564008832,0.36847713589668274,-1.3904038667678833,0.8951640725135803,-0.13670307397842407,-0.2459627389907837,0.06622293591499329,0.0,0.0,0.0,0.0,-0.3000025448675481,0.51961377298239,0.5,-0.4606587886810303,-0.5458030700683594,0.005571647081524134,0.037453655153512955,-0.02848375216126442,0.011623838916420937,0.3079778552055359,-0.9793442487716675,-1.4832044839859009,-0.058092594146728516,0.167226642370224,0.09382112324237823,0.0,0.0,0.0,0.0,-0.29999491024331576,-0.5196181808098181,0.5
0.379,TAKEOFF,intermittent,1.0,0.5965285897254944,0.006855762097984552,-0.0009460302535444498,0.0025293927174061537,-0.013693146407604218,-0.0031216542702168226,0.43152090907096863,0.1864224523305893,0.2850111722946167,0.3016211986541748,0.16863633692264557,0.08376214653253555,0.0,0.0,0.0,0.0,0.6,0.0,0.5,-0.416742205619812,0.578008770942688,0.0037660421803593636,0.0016023475909605622,-0.001481439103372395,0.00670022564008832,0.36847713589668274,-1.3904038667678833,0.8951640725135803,-0.13670307397842407,-0.2459627389907837,0.06622293591499329,0.0,0.0,0.0,0.0,-0.3000025448675481,0.51961377298239,0.5,-0.4606587886810303,-0.5458030700683594,0.005571647081524134,0.037453655153512955,-0.02848375216126442,0.011623838916420937,0.3079778552055359,-0.9793442487716675,-1.4832044839859009,-0.058092594146728516,0.167226642370224,0.09382112324237823,0.0,0.0,0.0,0.0,-0.29999491024331576,-0.5196181808098181,0.5
0.397,TAKEOFF,intermittent,1.0,0.5965285897254944,0.006855762097984552,-0.0009460302535444498,0.003752992022782564,-0.012117039412260056,-0.00151016004383564,0.49337559938430786,0.013552031479775906,0.19261685013771057,-0.10545243322849274,0.3495199680328369,0.0855901688337326,0.0,0.0,0.0,0.0,0.6,0.0,0.5,-0.416742205619812,0.578008770942688,0.0037660421803593636,0.02569475769996643,-0.022919483482837677,-0.00748334638774395,0.47146135568618774,-1.5011177062988281,0.9010260105133057,0.12296094745397568,-0.0034795065876096487,-0.08442383259534836,0.0,0.0,0.0,0.0,-0.3000025448675481,0.51961377298239,0.5,-0.4559381902217865,-0.5501886606216431,0.00711275776848197,0.02155492454767227,-0.015267682261765003,0.004832617938518524,0.20544330775737762,-0.8662876486778259,-1.483143925666809,-0.13996011018753052,-0.12237254530191422,-0.09236650168895721,0.0,0.0,0.0,0.0,-0.29999491024331576,-0.5196181808098181,0.5
0.418,TAKEOFF,intermittent,1.0,0.5965285897254944,0.006855762097984552,-0.0009460302535444498,0.019260918721556664,-0.022559260949492455,0.003253165865316987,0.4950377345085144,0.02426023595035076,0.11035414785146713,0.17347481846809387,-0.04217834025621414,-0.028972048312425613,0.0,0.0,0.0,0.0,0.6,0.0,0.5,-0.416742205619812,0.578008770942688,0.0037660421803593636,0.02569475769996643,-0.022919483482837677,-0.00748334638774395,0.530504047870636,-1.5753583908081055,0.8519420027732849,0.12758709490299225,-0.012552779167890549,-0.13390764594078064,0.0,0.0,0.0,0.0,-0.3000025448675481,0.51961377298239,0.5,-0.4559381902217865,-0.5501886606216431,0.00711275776848197,0.02150277979671955,-0.01379538793116808,0.001934477360919118,0.19382143020629883,-0.8603881001472473,-1.4630589485168457,0.0765819400548935,0.31806057691574097,-0.061761900782585144,0.0,0.0,0.0,0.0,-0.29999491024331576,-0.5196181808098181,0.5
0.437,TAKEOFF,intermittent,1.0,0.5965285897254944,0.006855762097984552,-0.0009460302535444498,0.019260918721556664,-0.022559260949492455,0.003253165865316987,0.4950377345085144,0.02426023595035076,0.11035414785146713,0.17347481846809387,-0.04217834025621414,-0.028972048312425613,0.0,0.0,0.0,0.0,0.6,0.0,0.5,-0.416742205619812,0.578008770942688,0.0037660421803593636,0.02569475769996643,-0.022919483482837677,-0.00748334638774395,0.530504047870636,-1.5753583908081055,0.8519420027732849,0.12758709490299225,-0.012552779167890549,-0.13390764594078064,0.0,0.0,0.0,0.0,-0.3000025448675481,0.51961377298239,0.5,-0.4559381902217865,-0.5501886606216431,0.00711275776848197,0.02150277979671955,-0.01379538793116808,0.001934477360919118,0.19382143020629883,-0.8603881001472473,-1.4630589485168457,0.0765819400548935,0.31806057691574097,-0.061761900782585144,0.0,0.0,0.0,0.0,-0.29999491024331576,-0.5196181808098181,0.5
0.463,TAKEOFF,intermittent,1.0,0.5965285897254944,0.006855762097984552,-0.0009460302535444498,0.017496390268206596,-0.01930915005505085,0.009235041216015816,0.47157731652259827,0.07524275034666061,0.10180319845676422,0.13630913197994232,-0.11748082935810089,-0.23683422803878784,0.0,0.0,0.0,0.0,0.6,0.0,0.5,-0.416742205619812,0.578008770942688,0.0037660421803593636,0.026608532294631004,-0.02396140992641449,-0.0039280615746974945,0.5301101207733154,-1.5622708797454834,0.829460859298706,-0.03966471925377846,0.13343246281147003,-0.08996415883302689,0.0,0.0,0.0,0.0,-0.3000025448675481,0.51961377298239,0.5,-0.4559381902217865,-0.5501886606216431,0.00711275776848197,0.02570868283510208,-0.018493056297302246,0.007935989648103714,0.10756507515907288,-0.7468478679656982,-1.4622292518615723,0.1744675636291504,0.07583099603652954,0.017570341005921364,0.0,0.0,0.0,0.0,-0.29999491024331576,-0.5196181808098181,0.5
0.477,TAKEOFF,intermittent,1.0,0.5965285897254944,0.006855762097984552,-0.0009460302535444498,0.017496390268206596,-0.01930915005505085,0.009235041216015816,0.47157731652259827,0.07524275034666061,0.10180319845676422,0.13630913197994232,-0.11748082935810089,-0.23683422803878784,0.0,0.0,0.0,0.0,0.6,0.0,0.5,-0.416742205619812,0.578008770942688,0.0037660421803593636,0.026608532294631004,-0.02396140992641449,-0.0039280615746974945,0.5301101207733154,-1.5622708797454834,0.829460859298706,-0.03966471925377846,0.13343246281147003,-0.08996415883302689,0.0,0.0,0.0,0.0,-0.3000025448675481,0.51961377298239,0.5,-0.4559381902217865,-0.5501886606216431,0.00711275776848197,0.02570868283510208,-0.018493056297302246,0.007935989648103714,0.10756507515907288,-0.7468478679656982,-1.4622292518615723,0.1744675636291504,0.07583099603652954,0.017570341005921364,0.0,0.0,0.0,0.0,-0.29999491024331576,-0.5196181808098181,0.5
0.497,TAKEOFF,intermittent,1.0,0.5982985496520996,0.0041137621738016605,0.0013717771507799625,0.008161338977515697,-0.0016537628835067153,0.002640753285959363,0.3024510145187378,0.16736017167568207,0.1532966047525406,0.1567191630601883,-0.03637650981545448,-0.12385109066963196,0.0,0.0,0.0,0.0,0.6,0.0,0.5,-0.4168797731399536,0.5770837664604187,0.0030667854007333517,0.005515146069228649,-0.012538210488855839,-0.003555231261998415,0.4307771921157837,-1.3976699113845825,0.8366735577583313,-0.04551092907786369,0.22694621980190277,-0.11049118638038635,0.0,0.0,0.0,0.0,-0.3000025448675481,0.51961377298239,0.5,-0.45567676424980164,-0.5502270460128784,0.007120078429579735,0.008137860335409641,-0.0019190504681318998,0.0035600352566689253,-0.009728293865919113,-0.6101493835449219,-1.473412036895752,0.11483219265937805,-0.0361148864030838,-0.016207700595259666,0.0,0.0,0.0,0.0,-0.29999491024331576,-0.5196181808098181,0.5
0.518,TAKEOFF,intermittent,1.0,0.5982985496520996,0.0041137621738016605,0.0013717771507799625,0.03190531209111214,-0.0043572657741606236,-0.0021139229647815228,0.3249903917312622,-0.012460717000067234,0.08595805615186691,0.06167216598987579,-0.0006994258146733046,-0.2991000711917877,0.0,0.0,0.0,0.0,0.6,0.0,0.5,-0.4168797731399536,0.5770837664604187,0.0030667854007333517,0.0019667502492666245,-0.01088634692132473,-0.0027981752064079046,0.41646066308021545,-1.366711974143982,0.8431781530380249,0.014687390066683292,-0.0068417820148169994,-0.004983876831829548,0.0,0.0,0.0,0.0,-0.3000025448675481,0.51961377298239,0.5,-0.45567676424980164,-0.5502270460128784,0.007120078429579735,-0.009736777283251286,0.014228575862944126,-0.0018562516197562218,-0.027566812932491302,-0.5862447619438171,-1.4815855026245117,0.12588675320148468,0.07760962098836899,0.07847916334867477,0.0,0.0,0.0,0.0,-0.29999491024331576,-0.5196181808098181,0.5
0.537,TAKEOFF,intermittent,1.0,0.5982985496520996,0.0041137621738016605,0.0013717771507799625,0.032650772482156754,-0.0042704869993031025,-0.0019444746430963278,0.3274347186088562,-0.061270974576473236,0.015201344154775143,0.006968227215111256,0.19232164323329926,0.09629756212234497,0.0,0.0,0.0,0.0,0.6,0.0,0.5,-0.4168797731399536,0.5770837664604187,0.0030667854007333517,0.002010961761698127,-0.011274250224232674,-0.0030907210893929005,0.4164954125881195,-1.3663471937179565,0.8426295518875122,0.03362090885639191,0.012805178761482239,0.08440707623958588,0.0,0.0,0.0,0.0,-0.3000025448675481,0.51961377298239,0.5,-0.45567676424980164,-0.5502270460128784,0.007120078429579735,-0.01450431626290083,0.01794648915529251,-0.002456758404150605,-0.026321575045585632,-0.5863417983055115,-1.4791144132614136,-0.0498291440308094,-0.17282705008983612,0.0780012384057045,0.0,0.0,0.0,0.0,-0.29999491024331576,-0.5196181808098181,0.5
0.557,TAKEOFF,intermittent,1.0,0.5982985496520996,0.0041137621738016605,0.0013717771507799625,0.02339206449687481,-0.01220562495291233,-0.0008758464828133583,0.38783156871795654,0.05399105325341225,0.013252981938421726,0.08185213059186935,-0.17628371715545654,-0.04784620925784111,0.0,0.0,0.0,0.0,0.6,0.0,0.5,-0.4168797731399536,0.5770837664604187,0.0030667854007333517,0.0018788425950333476,-0.011996532790362835,-0.0032686744816601276,0.4159703850746155,-1.3656585216522217,0.8434674739837646,-0.11308066546916962,-0.1817488670349121,-0.12158862501382828,0.0,0.0,0.0,0.0,-0.3000025448675481,0.51961377298239,0.5,-0.45567676424980164,-0.5502270460128784,0.007120078429579735,0.011632516980171204,-0.0007211438496597111,-0.0031297116074711084,0.11616555601358414,-0.7965059876441956,-1.4621009826660156,-0.04735736921429634,-0.04657585173845291,0.11345790326595306,0.0,0.0,0.0,0.0,-0.29999491024331576,-0.5196181808098181,0.5
0.577,TAKEOFF,intermittent,1.0,0.5980339050292969,0.0054052360355854034,-0.00014874259068164974,0.018923426046967506,-0.01097434014081955,0.003825258929282427,0.38783156871795654,0.05399105325341225,0.013252981938421726,0.08185213059186935,-0.17628371715545654,-0.04784620925784111,0.0,0.0,0.0,0.0,0.6,0.0,0.5,-0.4193122982978821,0.5780791640281677,0.004273804370313883,-0.01193631999194622,0.0007608680170960724,0.0067680939100682735,0.3072175681591034,-1.2518798112869263,0.8981241583824158,-0.22125215828418732,0.16413751244544983,-0.2446851283311844,0.0,0.0,0.0,0.0,-0.3000025448675481,0.51961377298239,0.5,-0.4577775299549103,-0.5471596717834473,0.005913586355745792,0.011632516980171204,-0.0007211438496597111,-0.0031297116074711084,0.1165962740778923,-0.7953614592552185,-1.4613693952560425,0.008334201760590076,-0.06251484900712967,0.17683982849121094,0.0,0.0,0.0,0.0,-0.29999491024331576,-0.5196181808098181,0.5
0.599,TAKEOFF,intermittent,1.0,0.5980339050292969,0.0054052360355854034,-0.00014874259068164974,0.02952428162097931,-0.0029906935524195433,-0.0009959849994629622,0.27850738167762756,0.13163971900939941,0.07492915540933609,0.04674900323152542,0.049490850418806076,-0.0021363242994993925,0.0,0.0,0.0,0.0,0.6,0.0,0.5,-0.4193122982978821,0.5780791640281677,0.004273804370313883,-0.01620064489543438,0.006144410464912653,0.012103047221899033,0.26350751519203186,-1.2205369472503662,0.9377727508544922,-0.03654760122299194,0.532359778881073,0.1473577320575714,0.0,0.0,0.0,0.0,-0.3000025448675481,0.51961377298239,0.5,-0.4577775299549103,-0.5471596717834473,0.005913586355745792,-6.345488509396091e-05,0.008934440091252327,-0.0057349372655153275,0.1165962740778923,-0.7953614592552185,-1.4613693952560425,0.008334201760590076,-0.06251484900712967,0.17683982849121094,0.0,0.0,0.0,0.0,-0.29999491024331576,-0.5196181808098181,0.5
0.618,TAKEOFF,intermittent,1.0,0.5980339050292969,0.0054052360355854034,-0.00014874259068164974,0.02952428162097931,-0.0029906935524195433,-0.0009959849994629622,0.31559377908706665,0.013417171314358711,0.005015923175960779,0.015788422897458076,0.027648581191897392,-0.05843663215637207,0.0,0.0,0.0,0.0,0.6,0.0,0.5,-0.4193122982978821,0.5780791640281677,0.004273804370313883,-0.01793854497373104,0.008746094070374966,0.01423630677163601,0.24589242041110992,-1.214094877243042,0.9801117181777954,-0.23447482287883759,-0.09071628004312515,-0.0015239533968269825,0.0,0.0,0.0,0.0,-0.3000025448675481,0.51961377298239,0.5,-0.4577775299549103,-0.5471596717834473,0.005913586355745792,-0.004111507907509804,0.012174425646662712,-0.006706603802740574,0.025704672560095787,-0.6690958142280579,-1.4708954095840454,0.11321887373924255,-0.33832722902297974,-0.008062302134931087,0.0,0.0,0.0,0.0,-0.29999491024331576,-0.5196181808098181,0.5
0.637,TAKEOFF,intermittent,1.0,0.5980339050292969,0.0054052360355854034,-0.00014874259068164974,0.02952428162097931,-0.0029906935524195433,-0.0009959849994629622,0.31559377908706665,0.013417171314358711,0.005015923175960779,0.015788422897458076,0.027648581191897392,-0.05843663215637207,0.0,0.0,0.0,0.0,0.6,0.0,0.5,-0.4193122982978821,0.5780791640281677,0.004273804370313883,-0.01793854497373104,0.008746094070374966,0.01423630677163601,0.24589242041110992,-1.214094877243042,0.9801117181777954,-0.23447482287883759,-0.09071628004312515,-0.0015239533968269825,0.0,0.0,0.0,0.0,-0.3000025448675481,0.51961377298239,0.5,-0.4577775299549103,-0.5471596717834473,0.005913586355745792,-0.004111507907509804,0.012174425646662712,-0.006706603802740574,0.025704672560095787,-0.6690958142280579,-1.4708954095840454,0.11321887373924255,-0.33832722902297974,-0.008062302134931087,0.0,0.0,0.0,0.0,-0.29999491024331576,-0.5196181808098181,0.5
0.657,TAKEOFF,intermittent,1.0,0.5980339050292969,0.0054052360355854034,-0.00014874259068164974,0.03797926753759384,0.007307257503271103,0.004336686804890633,0.20983050763607025,0.0025021559558808804,-0.06217861548066139,-0.055591292679309845,0.4349622428417206,0.04529959335923195,0.0,0.0,0.0,0.0,0.6,0.0,0.5,-0.4193122982978821,0.5780791640281677,0.004273804370313883,-0.013482383452355862,0.017911339178681374,0.00345812551677227,0.18498966097831726,-1.2587647438049316,0.9934691190719604,0.07576941698789597,0.4512878358364105,-0.03997815400362015,0.0,0.0,0.0,0.0,-0.3000025448675481,0.51961377298239,0.5,-0.4577775299549103,-0.5471596717834473,0.005913586355745792,-0.005983398761600256,0.012291464023292065,-0.007514686323702335,0.03134569153189659,-0.6568953394889832,-1.4893935918807983,0.2185540348291397,0.05792708322405815,0.2688571810722351,0.0,0.0,0.0,0.0,-0.29999491024331576,-0.5196181808098181,0.5
0.679,TAKEOFF,intermittent,1.0,0.5987701416015625,0.006812634412199259,-0.0009661617805249989,0.03797926753759384,0.007307257503271103,0.004336686804890633,0.22624839842319489,-0.037818580865859985,-0.1187819167971611,0.22500234842300415,0.20176926255226135,-0.06482605636119843,0.0,0.0,0.0,0.0,0.6,0.0,0.5,-0.41823238134384155,0.5790907740592957,0.004652895964682102,-0.0011419825023040175,-0.0015563364140689373,-0.0017197049455717206,0.3451596796512604,-1.3637624979019165,0.9442847967147827,0.1735352873802185,-0.22024405002593994,-0.16331587731838226,0.0,0.0,0.0,0.0,-0.3000025448675481,0.51961377298239,0.5,-0.4604969918727875,-0.5445449352264404,0.0046788109466433525,-0.006162659265100956,0.012864382937550545,-0.0074790543876588345,0.03134569153189659,-0.6568953394889832,-1.4893935918807983,0.2185540348291397,0.05792708322405815,0.2688571810722351,0.0,0.0,0.0,0.0,-0.29999491024331576,-0.5196181808098181,0.5
0.697,TAKEOFF,intermittent,1.0,0.5987701416015625,0.006812634412199259,-0.0009661617805249989,0.02549690566956997,-0.005952970590442419,-0.0007111183949746192,0.29704102873802185,0.039194513112306595,-0.11610443145036697,0.0019975623581558466,-0.006013511214405298,-0.0765010192990303,0.0,0.0,0.0,0.0,0.6,0.0,0.5,-0.41823238134384155,0.5790907740592957,0.004652895964682102,0.0044372789561748505,-0.008292488753795624,-0.005598339717835188,0.3995668888092041,-1.4086077213287354,0.8978905081748962,0.01736392453312874,-0.4248211681842804,0.14182662963867188,0.0,0.0,0.0,0.0,-0.3000025448675481,0.51961377298239,0.5,-0.4604969918727875,-0.5445449352264404,0.0046788109466433525,-0.006346439942717552,0.013311311602592468,-0.007130706217139959,0.032951220870018005,-0.656766951084137,-1.4876492023468018,-0.0569218173623085,-0.12459810823202133,-0.02304009348154068,0.0,0.0,0.0,0.0,-0.29999491024331576,-0.5196181808098181,0.5
0.718,TAKEOFF,intermittent,1.0,0.5987701416015625,0.006812634412199259,-0.0009661617805249989,0.02906346321105957,-0.0008877462241798639,-8.377728227060288e-05,0.24919554591178894,0.07453721761703491,-0.05343848094344139,0.11153186857700348,-0.10553459823131561,-0.018989479169249535,0.0,0.0,0.0,0.0,0.6,0.0,0.5,-0.41823238134384155,0.5790907740592957,0.004652895964682102,0.001952216261997819,-0.006794380024075508,-0.00731267174705863,0.3995668888092041,-1.4086077213287354,0.8978905081748962,0.01736392453312874,-0.4248211681842804,0.14182662963867188,0.0,0.0,0.0,0.0,-0.3000025448675481,0.51961377298239,0.5,-0.4604969918727875,-0.5445449352264404,0.0046788109466433525,-0.010594441555440426,0.002353245858103037,-0.007217000238597393,0.1199827641248703,-0.6311156153678894,-1.5121426582336426,-0.15932011604309082,-0.2139880508184433,0.08228375762701035,0.0,0.0,0.0,0.0,-0.29999491024331576,-0.5196181808098181,0.5
0.737,TAKEOFF,intermittent,1.0,0.5987701416015625,0.006812634412199259,-0.0009661617805249989,0.024620700627565384,0.005564253311604261,0.0004366759676486254,0.2532849609851837,0.07665528357028961,-0.05320604518055916,0.004629758186638355,0.24046054482460022,-0.09098662436008453,0.0,0.0,0.0,0.0,0.6,0.0,0.5,-0.41823238134384155,0.5790907740592957,0.004652895964682102,0.0026291979011148214,-0.006508981809020042,-0.006187798455357552,0.38737645745277405,-1.3835692405700684,0.8731069564819336,0.11943500488996506,-0.1496981531381607,-0.02265545167028904,0.0,0.0,0.0,0.0,-0.3000025448675481,0.51961377298239,0.5,-0.4604969918727875,-0.5445449352264404,0.0046788109466433525,-0.007492339704185724,0.0030507103074342012,-0.0033529445063322783,0.12107522040605545,-0.6293512582778931,-1.5123411417007446,0.0698588490486145,-0.19297872483730316,0.006708105560392141,0.0,0.0,0.0,0.0,-0.29999491024331576,-0.5196181808098181,0.5
0.761,TAKEOFF,intermittent,1.0,0.5987701416015625,0.006812634412199259,-0.0009661617805249989,0.010567865334451199,-0.003980295266956091,-0.00012845368473790586,0.33279889822006226,0.1821870058774948,-0.04816563054919243,-0.015000523999333382,0.0947222113609314,-0.005048750434070826,0.0,0.0,0.0,0.0,0.6,0.0,0.5,-0.41823238134384155,0.5790907740592957,0.004652895964682102,0.009033887647092342,-0.011672943830490112,-0.009263918735086918,0.42332497239112854,-1.4324792623519897,0.8194712996482849,0.053844526410102844,0.03525504842400551,-0.10670363903045654,0.0,0.0,0.0,0.0,-0.3000025448675481,0.51961377298239,0.5,-0.4604969918727875,-0.5445449352264404,0.0046788109466433525,0.004490318242460489,-0.005399834364652634,0.00016994218458421528,0.1842620074748993,-0.7575588822364807,-1.5061997175216675,-0.16128943860530853,-0.22331492602825165,0.08112914860248566,0.0,0.0,0.0,0.0,-0.29999491024331576,-0.5196181808098181,0.5
0.778,TAKEOFF,intermittent,1.0,0.5966955423355103,0.007865904830396175,-0.000905495835468173,0.010567865334451199,-0.003980295266956091,-0.00012845368473790586,0.33279889822006226,0.1821870058774948,-0.04816563054919243,-0.015000523999333382,0.0947222113609314,-0.005048750434070826,0.0,0.0,0.0,0.0,0.6,0.0,0.5,-0.4139832556247711,0.5756216049194336,0.002838382264599204,0.009033887647092342,-0.011672943830490112,-0.009263918735086918,0.42332497239112854,-1.4324792623519897,0.8194712996482849,0.053844526410102844,0.03525504842400551,-0.10670363903045654,0.0,0.0,0.0,0.0,-0.3000025448675481,0.51961377298239,0.5,-0.4551471471786499,-0.5506868958473206,0.007412318605929613,0.004490318242460489,-0.005399834364652634,0.00016994218458421528,0.1842620074748993,-0.7575588822364807,-1.5061997175216675,-0.16128943860530853,-0.22331492602825165,0.08112914860248566,0.0,0.0,0.0,0.0,-0.29999491024331576,-0.5196181808098181,0.5
0.799,TAKEOFF,intermittent,1.0,0.5966955423355103,0.007865904830396175,-0.000905495835468173,0.0002717168827075511,-0.0005087877507321537,-0.003681425005197525,0.2935537099838257,0.2531157433986664,0.008705979213118553,-0.12882375717163086,-0.032334234565496445,-0.22303754091262817,0.0,0.0,0.0,0.0,0.6,0.0,0.5,-0.4139832556247711,0.5756216049194336,0.002838382264599204,0.013517648912966251,-0.01281007844954729,-0.01534093078225851,0.42901742458343506,-1.4644688367843628,0.7262938618659973,-0.1124596893787384,-0.11147931963205338,0.19154201447963715,0.0,0.0,0.0,0.0,-0.3000025448675481,0.51961377298239,0.5,-0.4551471471786499,-0.5506868958473206,0.007412318605929613,0.006326278671622276,-0.00415645120665431,0.00432538241147995,0.16465744376182556,-0.7656253576278687,-1.4834200143814087,0.21873797476291656,-0.1833065152168274,-0.18458956480026245,0.0,0.0,0.0,0.0,-0.29999491024331576,-0.5196181808098181,0.5
0.817,TAKEOFF,intermittent,1.0,0.5966955423355103,0.007865904830396175,-0.000905495835468173,0.0002717168827075511,-0.0005087877507321537,-0.003681425005197525,0.30894044041633606,0.2516700327396393,-0.0018323169788345695,-0.09055078029632568,0.27058467268943787,0.06555280089378357,0.0,0.0,0.0,0.0,0.6,0.0,0.5,-0.4139832556247711,0.5756216049194336,0.002838382264599204,0.013901550322771072,-0.012018515728414059,-0.016275424510240555,0.41893506050109863,-1.4628183841705322,0.6923390030860901,0.025806326419115067,-0.09715217351913452,-0.19322112202644348,0.0,0.0,0.0,0.0,-0.3000025448675481,0.51961377298239,0.5,-0.4551471471786499,-0.5506868958473206,0.007412318605929613,0.006442616693675518,-0.004751546774059534,0.004507193807512522,0.17423580586910248,-0.7635817527770996,-1.5004327297210693,-0.053063347935676575,-0.175271138548851,-0.07666922360658646,0.0,0.0,0.0,0.0,-0.29999491024331576,-0.5196181808098181,0.5
0.837,TAKEOFF,intermittent,1.0,0.5966955423355103,0.007865904830396175,-0.000905495835468173,0.0002717168827075511,-0.0005087877507321537,-0.003681425005197525,0.30894044041633606,0.2516700327396393,-0.0018323169788345695,-0.09055078029632568,0.27058467268943787,0.06555280089378357,0.0,0.0,0.0,0.0,0.6,0.0,0.5,-0.4139832556247711,0.5756216049194336,0.002838382264599204,0.013901550322771072,-0.012018515728414059,-0.016275424510240555,0.41893506050109863,-1.4628183841705322,0.6923390030860901,0.025806326419115067,-0.09715217351913452,-0.19322112202644348,0.0,0.0,0.0,0.0,-0.3000025448675481,0.51961377298239,0.5,-0.4551471471786499,-0.5506868958473206,0.007412318605929613,0.006442616693675518,-0.004751546774059534,0.004507193807512522,0.17423580586910248,-0.7635817527770996,-1.5004327297210693,-0.053063347935676575,-0.175271138548851,-0.07666922360658646,0.0,0.0,0.0,0.0,-0.29999491024331576,-0.5196181808098181,0.5
0.861,TAKEOFF,intermittent,1.0,0.5966955423355103,0.007865904830396175,-0.000905495835468173,-0.00020717844017781317,-0.00028331909561529756,-0.003788759233430028,0.3911202847957611,0.04503713548183441,-0.0604475773870945,-0.044361505657434464,-0.020428162068128586,-0.09068761020898819,0.0,0.0,0.0,0.0,0.6,0.0,0.5,-0.4139832556247711,0.5756216049194336,0.002838382264599204,0.004585803020745516,-0.011167577467858791,0.0029248835053294897,0.4085288643836975,-1.3858526945114136,0.6830487847328186,0.07130210101604462,-0.09001773595809937,0.06828311085700989,0.0,0.0,0.0,0.0,-0.3000025448675481,0.51961377298239,0.5,-0.4551471471786499,-0.5506868958473206,0.007412318605929613,0.006795227061957121,-0.00664640124887228,0.003199696308001876,0.1756776124238968,-0.7657837867736816,-1.5164133310317993,0.15575091540813446,0.024067064747214317,0.20912674069404602,0.0,0.0,0.0,0.0,-0.29999491024331576,-0.5196181808098181,0.5
0.878,TAKEOFF,intermittent,1.0,0.6012586355209351,0.0051523251459002495,-0.0009073761757463217,0.02422475256025791,-0.018253184854984283,-0.002607333939522505,0.44552597403526306,0.07751064002513885,-0.11118784546852112,0.01166863925755024,0.013541704043745995,-0.152113676071167,0.0,0.0,0.0,0.0,0.6,0.0,0.5,-0.41357478499412537,0.5747398138046265,0.0038545536808669567,0.0045667910017073154,-0.011253180913627148,0.0028508997056633234,0.4086330831050873,-1.3852441310882568,0.6834973692893982,-0.17812317609786987,0.11352609843015671,0.07996925711631775,0.0,0.0,0.0,0.0,-0.3000025448675481,0.51961377298239,0.5,-0.4549797773361206,-0.5509713292121887,0.008203111588954926,0.0076306969858706,-0.007337446324527264,0.001971313264220953,0.1756776124238968,-0.7657837867736816,-1.5164133310317993,0.15575091540813446,0.024067064747214317,0.20912674069404602,0.0,0.0,0.0,0.0,-0.29999491024331576,-0.5196181808098181,0.5
0.896,TAKEOFF,intermittent,1.0,0.6012586355209351,0.0051523251459002495,-0.0009073761757463217,0.024691041558980942,-0.018957659602165222,-0.002478873822838068,0.4444566071033478,0.07808759063482285,-0.11134858429431915,0.27688461542129517,0.04536311700940132,-0.054357998073101044,0.0,0.0,0.0,0.0,0.6,0.0,0.5,-0.41357478499412537,0.5747398138046265,0.0038545536808669567,-0.025164373219013214,0.01640956476330757,0.0025675594806671143,0.4086330831050873,-1.3852441310882568,0.6834973692893982,-0.17812317609786987,0.11352609843015671,0.07996925711631775,0.0,0.0,0.0,0.0,-0.3000025448675481,0.51961377298239,0.5,-0.4549797773361206,-0.5509713292121887,0.008203111588954926,0.028129369020462036,-0.02016383595764637,0.008875813335180283,0.27201104164123535,-0.9322986006736755,-1.4868791103363037,0.006493784952908754,0.08402854204177856,0.08924967795610428,0.0,0.0,0.0,0.0,-0.29999491024331576,-0.5196181808098181,0.5
0.916,TAKEOFF,intermittent,1.0,0.6012586355209351,0.0051523251459002495,-0.0009073761757463217,0.026593122631311417,-0.01661497913300991,-0.008271286264061928,0.42363065481185913,0.06539992243051529,-0.1737203299999237,0.014015937224030495,-0.14435400068759918,-0.024422727525234222,0.0,0.0,0.0,0.0,0.6,0.0,0.5,-0.41357478499412537,0.5747398138046265,0.0038545536808669567,-0.029827086254954338,0.023015383630990982,0.005306679755449295,0.13487853109836578,-1.1302460432052612,0.7796498537063599,-0.26146748661994934,-0.024974148720502853,-0.11827912926673889,0.0,0.0,0.0,0.0,-0.3000025448675481,0.51961377298239,0.5,-0.4549797773361206,-0.5509713292121887,0.008203111588954926,0.02826431393623352,-0.018171466886997223,0.01435024943202734,0.24819515645503998,-0.9252374172210693,-1.50233793258667,0.09455223381519318,0.15658950805664062,0.03897789493203163,0.0,0.0,0.0,0.0,-0.29999491024331576,-0.5196181808098181,0.5
0.937,TAKEOFF,intermittent,1.0,0.6012586355209351,0.0051523251459002495,-0.0009073761757463217,0.015469344332814217,-0.01839817315340042,0.0013573704054579139,0.4373750686645508,0.11687172204256058,-0.22162117063999176,0.1407875418663025,0.20997051894664764,-0.13412855565547943,0.0,0.0,0.0,0.0,0.6,0.0,0.5,-0.41357478499412537,0.5747398138046265,0.0038545536808669567,-0.02831668220460415,0.02573353983461857,-1.5413485016324557e-05,0.11890994757413864,-1.1475262641906738,0.7579978108406067,0.22720709443092346,-0.06951268762350082,0.07779084146022797,0.0,0.0,0.0,0.0,-0.3000025448675481,0.51961377298239,0.5,-0.4549797773361206,-0.5509713292121887,0.008203111588954926,0.029176777228713036,-0.018524423241615295,0.014364609494805336,0.2495512217283249,-0.9251458644866943,-1.5000255107879639,-0.08186308294534683,0.17335540056228638,0.045240819454193115,0.0,0.0,0.0,0.0,-0.29999491024331576,-0.5196181808098181,0.5
0.958,TAKEOFF,intermittent,1.0,0.6012586355209351,0.0051523251459002495,-0.0009073761757463217,0.022210298106074333,-0.01765652932226658,-0.006359214894473553,0.43023136258125305,0.14541667699813843,-0.20588192343711853,0.10611885786056519,0.2060597836971283,-0.2812003791332245,0.0,0.0,0.0,0.0,0.6,0.0,0.5,-0.41357478499412537,0.5747398138046265,0.0038545536808669567,-0.02766871638596058,0.026983704417943954,-0.00428559398278594,0.11788351088762283,-1.1594136953353882,0.7357263565063477,-0.20072951912879944,-0.02007872611284256,0.06043403968214989,0.0,0.0,0.0,0.0,-0.3000025448675481,0.51961377298239,0.5,-0.4549797773361206,-0.5509713292121887,0.008203111588954926,0.030246905982494354,-0.0196848101913929,0.014524204656481743,0.24751774966716766,-0.9280993938446045,-1.497562289237976,0.049582358449697495,0.307500422000885,0.0012640319764614105,0.0,0.0,0.0,0.0,-0.29999491024331576,-0.5196181808098181,0.5
0.976,TAKEOFF,intermittent,1.0,0.5989924073219299,0.004297025501728058,-0.00047129704034887254,0.0202376376837492,-0.016119180247187614,-0.0037190548609942198,0.4092159867286682,0.10718036442995071,-0.3045981824398041,0.039680399000644684,0.02014622464776039,-0.17621411383152008,0.0,0.0,0.0,0.0,0.6,0.0,0.5,-0.4158097505569458,0.5774400234222412,0.0037485789507627487,-0.011401349678635597,0.0001233761286130175,-0.0009168138494715095,0.3300052881240845,-1.291180968284607,0.7070710062980652,-0.1355825960636139,0.16572600603103638,0.07103804498910904,0.0,0.0,0.0,0.0,-0.3000025448675481,0.51961377298239,0.5,-0.4525776207447052,-0.551552951335907,0.011656919494271278,0.030246905982494354,-0.0196848101913929,0.014524204656481743,0.21256782114505768,-0.9007762670516968,-1.5241725444793701,0.10206090658903122,-0.19674284756183624,0.1707812398672104,0.0,0.0,0.0,0.0,-0.29999491024331576,-0.5196181808098181,0.5
0.997,TAKEOFF,intermittent,1.0,0.5989924073219299,0.004297025501728058,-0.00047129704034887254,0.0202376376837492,-0.016119180247187614,-0.0037190548609942198,0.4092159867286682,0.10718036442995071,-0.3045981824398041,0.039680399000644684,0.02014622464776039,-0.17621411383152008,0.0,0.0,0.0,0.0,0.6,0.0,0.5,-0.4158097505569458,0.5774400234222412,0.0037485789507627487,-0.011401349678635597,0.0001233761286130175,-0.0009168138494715095,0.3300052881240845,-1.291180968284607,0.7070710062980652,-0.1355825960636139,0.16572600603103638,0.07103804498910904,0.0,0.0,0.0,0.0,-0.3000025448675481,0.51961377298239,0.5,-0.4525776207447052,-0.551552951335907,0.011656919494271278,0.030246905982494354,-0.0196848101913929,0.014524204656481743,0.21256782114505768,-0.9007762670516968,-1.5241725444793701,0.10206090658903122,-0.19674284756183624,0.1707812398672104,0.0,0.0,0.0,0.0,-0.29999491024331576,-0.5196181808098181,0.5
1.018,TAKEOFF,intermittent,1.0,0.5989924073219299,0.004297025501728058,-0.00047129704034887254,0.021290291100740433,-0.01733929105103016,-0.003925517667084932,0.21134252846240997,0.23958203196525574,-0.2286212295293808,0.12146442383527756,0.24158000946044922,0.029744934290647507,0.0,0.0,0.0,0.0,0.6,0.0,0.5,-0.4158097505569458,0.5774400234222412,0.0037485789507627487,-0.014720845967531204,0.0013483655638992786,0.00021585279318969697,0.31517550349235535,-1.2642252445220947,0.6960383653640747,-0.04279322922229767,0.037947896867990494,-0.12418000400066376,0.0,0.0,0.0,0.0,-0.3000025448675481,0.51961377298239,0.5,-0.4525776207447052,-0.551552951335907,0.011656919494271278,-0.014557954855263233,0.012458556331694126,-0.004991801921278238,0.006249833852052689,-0.5672796368598938,-1.5241528749465942,-0.06924346089363098,0.14162564277648926,0.27233418822288513,0.0,0.0,0.0,0.0,-0.29999491024331576,-0.5196181808098181,0.5
1.036,TAKEOFF,intermittent,1.0,0.5989924073219299,0.004297025501728058,-0.00047129704034887254,0.02084374986588955,0.005394056439399719,-0.003121327143162489,0.1420973241329193,0.14944632351398468,-0.20542117953300476,0.10545244067907333,0.022244160994887352,0.12296084314584732,0.0,0.0,0.0,0.0,0.6,0.0,0.5,-0.4158097505569458,0.5774400234222412,0.0037485789507627487,-0.018846306949853897,0.005541460122913122,0.002924105618149042,0.2841089367866516,-1.2323652505874634,0.7514511942863464,0.06166256591677666,0.07334206253290176,0.1603015810251236,0.0,0.0,0.0,0.0,-0.3000025448675481,0.51961377298239,0.5,-0.4525776207447052,-0.551552951335907,0.011656919494271278,-0.014861959032714367,0.01268201693892479,-0.004893277306109667,0.005961102899163961,-0.5682496428489685,-1.522538423538208,-0.10609733313322067,-0.018219539895653725,0.15913182497024536,0.0,0.0,0.0,0.0,-0.29999491024331576,-0.5196181808098181,0.5
1.056,TAKEOFF,intermittent,1.0,0.5989924073219299,0.004297025501728058,-0.00047129704034887254,0.015985295176506042,0.01768799126148224,-0.0004860918561462313,0.08471286296844482,0.18925265967845917,-0.13896234333515167,0.07242369651794434,-0.06029653921723366,0.08100022375583649,0.0,0.0,0.0,0.0,0.6,0.0,0.5,-0.4158097505569458,0.5774400234222412,0.0037485789507627487,-0.020697645843029022,0.007913286797702312,0.0058426568284630775,0.36809661984443665,-1.3103318214416504,0.7616733312606812,0.12623639404773712,0.018521049991250038,0.11528263986110687,0.0,0.0,0.0,0.0,-0.3000025448675481,0.51961377298239,0.5,-0.4525776207447052,-0.551552951335907,0.011656919494271278,0.008998499251902103,-0.006202005781233311,-0.0008249483653344214,0.15726032853126526,-0.7745285630226135,-1.4767259359359741,0.21096087992191315,0.1870698481798172,-0.019038263708353043,0.0,0.0,0.0,0.0,-0.29999491024331576,-0.5196181808098181,0.5
1.076,TAKEOFF,intermittent,1.0,0.6002475619316101,0.01186349242925644,-0.0008964717271737754,0.01058992464095354,0.025525743141770363,-0.0010021579219028354,0.08353458344936371,0.1899806261062622,-0.14034047722816467,-0.012407316826283932,-0.01150305662304163,-0.018512839451432228,0.0,0.0,0.0,0.0,0.6,0.0,0.5,-0.4170103073120117,0.5778869390487671,0.003873684210702777,-0.009304570034146309,-0.004149248823523521,-0.0005251847323961556,0.3686501681804657,-1.3119971752166748,0.7366169691085815,0.002538316184654832,0.19235177338123322,0.2275887280702591,0.0,0.0,0.0,0.0,-0.3000025448675481,0.51961377298239,0.5,-0.45481929183006287,-0.55042564868927,0.006911586970090866,0.018714595586061478,-0.015498412773013115,0.0022168499417603016,0.23008297383785248,-0.8596262335777283,-1.4564123153686523,0.031914614140987396,-0.08602313697338104,-0.011779013089835644,0.0,0.0,0.0,0.0,-0.29999491024331576,-0.5196181808098181,0.5
1.096,TAKEOFF,intermittent,1.0,0.6002475619316101,0.01186349242925644,-0.0008964717271737754,0.010940013453364372,0.02647441439330578,-0.0007071393774822354,0.08353458344936371,0.1899806261062622,-0.14034047722816467,-0.012407316826283932,-0.01150305662304163,-0.018512839451432228,0.0,0.0,0.0,0.0,0.6,0.0,0.5,-0.4170103073120117,0.5778869390487671,0.003873684210702777,-0.01196687575429678,-0.0039044220466166735,-0.0014098708052188158,0.3661538362503052,-1.2922383546829224,0.7528217434883118,-0.07422162592411041,0.23734943568706512,-0.030979406088590622,0.0,0.0,0.0,0.0,-0.3000025448675481,0.51961377298239,0.5,-0.45481929183006287,-0.55042564868927,0.006911586970090866,0.018714595586061478,-0.015498412773013115,0.0022168499417603016,0.23104152083396912,-0.8579082489013672,-1.4559003114700317,0.3168361783027649,-0.06432025879621506,0.013665792532265186,0.0,0.0,0.0,0.0,-0.29999491024331576,-0.5196181808098181,0.5
1.116,TAKEOFF,intermittent,1.0,0.6002475619316101,0.01186349242925644,-0.0008964717271737754,0.010702916420996189,0.027142414823174477,-0.0006039806175976992,0.083736851811409,0.19298423826694489,-0.13977980613708496,0.014845503494143486,-0.037925541400909424,0.24548768997192383,0.0,0.0,0.0,0.0,0.6,0.0,0.5,-0.4170103073120117,0.5778869390487671,0.003873684210702777,-0.012160655111074448,-0.0037759479600936174,-0.0011571386130526662,0.3670881688594818,-1.2926007509231567,0.7535666227340698,-0.10909669101238251,0.0367492213845253,-0.13887275755405426,0.0,0.0,0.0,0.0,-0.3000025448675481,0.51961377298239,0.5,-0.45481929183006287,-0.55042564868927,0.006911586970090866,0.019175522029399872,-0.0163175780326128,0.002260626992210746,0.23260575532913208,-0.8568680286407471,-1.456701397895813,0.02598492242395878,0.06245475262403488,0.10815703123807907,0.0,0.0,0.0,0.0,-0.29999491024331576,-0.5196181808098181,0.5
1.137,TAKEOFF,intermittent,1.0,0.6002475619316101,0.01186349242925644,-0.0008964717271737754,0.028477750718593597,0.02157188206911087,0.005625834688544273,0.13172776997089386,0.06464425474405289,-0.12832801043987274,0.22853171825408936,-0.056239768862724304,0.004835442174226046,0.0,0.0,0.0,0.0,0.6,0.0,0.5,-0.4170103073120117,0.5778869390487671,0.003873684210702777,-0.01258616242557764,-0.00394207239151001,-0.0012856724206358194,0.3689382076263428,-1.2889527082443237,0.7541224956512451,-0.12760137021541595,-0.17755280435085297,-0.16043955087661743,0.0,0.0,0.0,0.0,-0.3000025448675481,0.51961377298239,0.5,-0.45481929183006287,-0.55042564868927,0.006911586970090866,0.016093606129288673,-0.01328688208013773,0.01365427952259779,0.2321430891752243,-0.8585931658744812,-1.4573487043380737,-0.02280483953654766,0.31408071517944336,0.14845885336399078,0.0,0.0,0.0,0.0,-0.29999491024331576,-0.5196181808098181,0.5
1.156,TAKEOFF,intermittent,1.0,0.6002475619316101,0.01186349242925644,-0.0008964717271737754,0.029360966756939888,0.02187248133122921,0.005968027748167515,0.13457345962524414,0.06078963354229927,-0.12670254707336426,0.02109370566904545,0.03749794140458107,0.14416195452213287,0.0,0.0,0.0,0.0,0.6,0.0,0.5,-0.4170103073120117,0.5778869390487671,0.003873684210702777,-0.018945205956697464,0.009519604034721851,0.0012199204647913575,0.26619744300842285,-1.242564082145691,0.779872715473175,-0.1682882010936737,-0.1472035050392151,0.1911645382642746,0.0,0.0,0.0,0.0,-0.3000025448675481,0.51961377298239,0.5,-0.45481929183006287,-0.55042564868927,0.006911586970090866,0.016352571547031403,-0.01342312153428793,0.01364245917648077,0.2045903503894806,-0.8229743838310242,-1.476906180381775,0.0006574764847755432,-0.054960258305072784,0.06527125090360641,0.0,0.0,0.0,0.0,-0.29999491024331576,-0.5196181808098181,0.5
1.177,TAKEOFF,intermittent,1.0,0.6041595339775085,0.013827751390635967,1.2285236152820289e-05,0.0300966314971447,0.02219236269593239,0.006501080002635717,0.13506504893302917,0.06001370772719383,-0.12435074895620346,0.12078908830881119,0.07017379254102707,0.17627742886543274,0.0,0.0,0.0,0.0,0.6,0.0,0.5,-0.4194682240486145,0.5798699855804443,0.004004961345344782,-0.019230134785175323,0.010049019940197468,0.0008135070092976093,0.26620540022850037,-1.2434778213500977,0.7809815406799316,0.17325635254383087,0.12695983052253723,-0.15205052495002747,0.0,0.0,0.0,0.0,-0.3000025448675481,0.51961377298239,0.5,-0.4534914791584015,-0.5514065027236938,0.009678755886852741,0.016352571547031403,-0.01342312153428793,0.01364245917648077,0.2045903503894806,-0.8229743838310242,-1.476906180381775,0.0006574764847755432,-0.054960258305072784,0.06527125090360641,0.0,0.0,0.0,0.0,-0.29999491024331576,-0.5196181808098181,0.5
1.2,TAKEOFF,intermittent,1.0,0.6041595339775085,0.013827751390635967,1.2285236152820289e-05,0.030874604359269142,0.022971592843532562,0.00667785108089447,0.13505800068378448,0.05784964561462402,-0.12293314933776855,-0.25264251232147217,-0.09278203547000885,0.18776942789554596,0.0,0.0,0.0,0.0,0.6,0.0,0.5,-0.4194682240486145,0.5798699855804443,0.004004961345344782,-0.015903089195489883,0.012051355093717575,-0.003877691924571991,0.257649302482605,-1.2723718881607056,0.7669183611869812,0.13756956160068512,0.3562559485435486,-0.2473217397928238,0.0,0.0,0.0,0.0,-0.3000025448675481,0.51961377298239,0.5,-0.4534914791584015,-0.5514065027236938,0.009678755886852741,0.01636141538619995,-0.013783023692667484,0.01324274018406868,0.20262479782104492,-0.8404853343963623,-1.4723714590072632,0.18103843927383423,0.05309218540787697,0.26066699624061584,0.0,0.0,0.0,0.0,-0.29999491024331576,-0.5196181808098181,0.5
1.221,TAKEOFF,intermittent,1.0,0.6041595339775085,0.013827751390635967,1.2285236152820289e-05,0.031366296112537384,0.023498911410570145,0.00711869727820158,0.3163593113422394,0.4210307002067566,-0.042003728449344635,0.269505113363266,0.030087729915976524,0.06536855548620224,0.0,0.0,0.0,0.0,0.6,0.0,0.5,-0.4194682240486145,0.5798699855804443,0.004004961345344782,-0.014111011289060116,0.01320851594209671,-0.007128405850380659,0.45629066228866577,-1.4750027656555176,0.7020593881607056,-0.005516056437045336,0.10009999573230743,-0.18609501421451569,0.0,0.0,0.0,0.0,-0.3000025448675481,0.51961377298239,0.5,-0.4534914791584015,-0.5514065027236938,0.009678755886852741,0.019162368029356003,-0.013979739509522915,0.01575388014316559,0.20359954237937927,-0.8421001434326172,-1.4715502262115479,-0.2620304226875305,-0.1681041419506073,-0.022825641557574272,0.0,0.0,0.0,0.0,-0.29999491024331576,-0.5196181808098181,0.5
1.236,TAKEOFF,intermittent,1.0,0.6041595339775085,0.013827751390635967,1.2285236152820289e-05,-0.019595934078097343,-0.0014814361929893494,-0.0012969565577805042,0.31803423166275024,0.42117342352867126,-0.039699286222457886,-0.16818355023860931,0.20315824449062347,0.21724918484687805,0.0,0.0,0.0,0.0,0.6,0.0,0.5,-0.4194682240486145,0.5798699855804443,0.004004961345344782,-0.0011439607478678226,-0.003969147335737944,-0.0014918337110430002,0.39039817452430725,-1.3849178552627563,0.7595536708831787,0.033271290361881256,-0.058568596839904785,-0.1417572796344757,0.0,0.0,0.0,0.0,-0.3000025448675481,0.51961377298239,0.5,-0.4534914791584015,-0.5514065027236938,0.009678755886852741,0.020153112709522247,-0.014046994969248772,0.009873068891465664,0.1933097243309021,-0.8393460512161255,-1.443956971168518,0.03128524124622345,0.1865677386522293,-0.012871162965893745,0.0,0.0,0.0,0.0,-0.29999491024331576,-0.5196181808098181,0.5
1.256,TAKEOFF,intermittent,1.0,0.6041595339775085,0.013827751390635967,1.2285236152820289e-05,-0.0036721217911690474,-0.010234477929770947,0.0004536255437415093,0.38867032527923584,0.2875012457370758,-0.0930805653333664,0.03992430865764618,0.0983959287405014,0.05462264269590378,0.0,0.0,0.0,0.0,0.6,0.0,0.5,-0.41582033038139343,0.5765998959541321,0.0030823531560599804,-0.0007233992801047862,-0.0037404827307909727,-0.0014751572161912918,0.47362416982650757,-1.482692003250122,0.7172000408172607,-0.09996069967746735,0.404411256313324,0.0015434421366080642,0.0,0.0,0.0,0.0,-0.3000025448675481,0.51961377298239,0.5,-0.4534914791584015,-0.5514065027236938,0.009678755886852741,-0.016593940556049347,0.015504492446780205,-0.006192958913743496,0.19418366253376007,-0.8410736918449402,-1.444248080253601,0.13383814692497253,0.1587202101945877,0.0016348116332665086,0.0,0.0,0.0,0.0,-0.29999491024331576,-0.5196181808098181,0.5
1.277,TAKEOFF,intermittent,1.0,0.6008328795433044,0.0078023988753557205,-0.0007460173801518977,-0.003856262192130089,-0.010705135762691498,0.0007199202082119882,0.38867032527923584,0.2875012457370758,-0.0930805653333664,0.03992430865764618,0.0983959287405014,0.05462264269590378,0.0,0.0,0.0,0.0,0.6,0.0,0.5,-0.41582033038139343,0.5765998959541321,0.0030823531560599804,0.012639385648071766,-0.012773692607879639,-0.0044696517288684845,0.46445581316947937,-1.4845705032348633,0.7031318545341492,0.08837741613388062,0.07718265801668167,0.08314426243305206,0.0,0.0,0.0,0.0,-0.3000025448675481,0.51961377298239,0.5,-0.4585326611995697,-0.5474734306335449,0.007037760689854622,-0.016593940556049347,0.015504492446780205,-0.006192958913743496,-0.029846474528312683,-0.541427493095398,-1.4501614570617676,-0.06149779632687569,-0.12366166710853577,0.10827930271625519,0.0,0.0,0.0,0.0,-0.29999491024331576,-0.5196181808098181,0.5
1.296,TAKEOFF,intermittent,1.0,0.6008328795433044,0.0078023988753557205,-0.0007460173801518977,-0.013047783635556698,-0.01726554147899151,0.0028020490426570177,0.34885796904563904,0.3911139667034149,-0.03012045845389366,0.08804632723331451,-0.0430557020008564,-0.07716156542301178,0.0,0.0,0.0,0.0,0.6,0.0,0.5,-0.41582033038139343,0.5765998959541321,0.0030823531560599804,0.013177542947232723,-0.012918179854750633,-0.004273913335055113,0.49373093247413635,-1.538428783416748,0.6623129844665527,0.00034240284003317356,-0.0836871862411499,0.13695862889289856,0.0,0.0,0.0,0.0,-0.3000025448675481,0.51961377298239,0.5,-0.4585326611995697,-0.5474734306335449,0.007037760689854622,-0.016104843467473984,0.018011441454291344,-0.01022435538470745,0.04248805716633797,-0.646220862865448,-1.40681791305542,0.263857901096344,-0.10240831226110458,0.20844918489456177,0.0,0.0,0.0,0.0,-0.29999491024331576,-0.5196181808098181,0.5
1.316,TAKEOFF,intermittent,1.0,0.6008328795433044,0.0078023988753557205,-0.0007460173801518977,-0.018024716526269913,-0.0063116950914263725,0.0030794141348451376,0.35074281692504883,0.3897585868835449,-0.030673149973154068,-0.13939720392227173,-0.1804322898387909,-0.14287318289279938,0.0,0.0,0.0,0.0,0.6,0.0,0.5,-0.41582033038139343,0.5765998959541321,0.0030823531560599804,0.01852821558713913,-0.016287604346871376,-0.0033038232941180468,0.49060386419296265,-1.5224097967147827,0.6566225290298462,-0.1543329507112503,-0.10622449219226837,0.16350269317626953,0.0,0.0,0.0,0.0,-0.3000025448675481,0.51961377298239,0.5,-0.4585326611995697,-0.5474734306335449,0.007037760689854622,-0.009828830137848854,0.013356981799006462,-0.009079912677407265,-0.001206079265102744,-0.6117517948150635,-1.3814984560012817,-0.018915966153144836,-0.12825845181941986,0.183653324842453,0.0,0.0,0.0,0.0,-0.29999491024331576,-0.5196181808098181,0.5
1.338,TAKEOFF,intermittent,1.0,0.6008328795433044,0.0078023988753557205,-0.0007460173801518977,-0.018796689808368683,-0.00631548510864377,0.0030111593659967184,0.35074281692504883,0.3897585868835449,-0.030673149973154068,-0.13939720392227173,-0.1804322898387909,-0.14287318289279938,0.0,0.0,0.0,0.0,0.6,0.0,0.5,-0.41582033038139343,0.5765998959541321,0.0030823531560599804,0.017479930073022842,-0.01600784622132778,0.002117617055773735,0.4832161068916321,-1.5067638158798218,0.6451565027236938,0.13913694024085999,-0.23934775590896606,0.216837078332901,0.0,0.0,0.0,0.0,-0.3000025448675481,0.51961377298239,0.5,-0.4585326611995697,-0.5474734306335449,0.007037760689854622,-0.010311486199498177,0.01394597627222538,-0.008984774351119995,-0.002054639160633087,-0.6108556389808655,-1.3816957473754883,-0.1678527295589447,-0.2717033922672272,-0.05477248877286911,0.0,0.0,0.0,0.0,-0.29999491024331576,-0.5196181808098181,0.5
1.356,TAKEOFF,intermittent,1.0,0.6008328795433044,0.0078023988753557205,-0.0007460173801518977,0.006066094618290663,-0.011952969245612621,-0.0007339899311773479,0.3515707552433014,0.3894677758216858,-0.030697830021381378,0.3745904266834259,0.19262729585170746,0.15027646720409393,0.0,0.0,0.0,0.0,0.6,0.0,0.5,-0.41582033038139343,0.5765998959541321,0.0030823531560599804,-0.003553591435775161,-0.000370114779798314,0.0014719439204782248,0.3522087037563324,-1.342143177986145,0.7066336274147034,0.09377551823854446,0.26341351866722107,-0.3337918519973755,0.0,0.0,0.0,0.0,-0.3000025448675481,0.51961377298239,0.5,-0.4585326611995697,-0.5474734306335449,0.007037760689854622,-0.010311486199498177,0.01394597627222538,-0.008984774351119995,-0.002067881403490901,-0.6080339550971985,-1.382300615310669,0.1176857277750969,-0.08509895950555801,-0.011495290324091911,0.0,0.0,0.0,0.0,-0.29999491024331576,-0.5196181808098181,0.5
1.377,TAKEOFF,intermittent,1.0,0.5980038046836853,0.006089640781283379,-0.0006108469679020345,-0.0015307788271456957,-0.017223592847585678,0.0012443515006452799,0.4432312548160553,0.23636078834533691,-0.09161961078643799,0.15295960009098053,-0.10556423664093018,0.08884838223457336,0.0,0.0,0.0,0.0,0.6,0.0,0.5,-0.41839930415153503,0.5784555673599243,0.0037928393576294184,-0.0035548380110412836,-0.0004593741905409843,0.001348330988548696,0.4518524706363678,-1.4609386920928955,0.6673631072044373,0.08376851677894592,-0.21737955510616302,-0.05249609425663948,0.0,0.0,0.0,0.0,-0.3000025448675481,0.51961377298239,0.5,-0.4595384895801544,-0.5471091866493225,0.005624594632536173,-0.022226424887776375,0.025057846680283546,-0.01336367055773735,-0.04019630327820778,-0.527258038520813,-1.4036085605621338,-0.17815285921096802,0.05678224563598633,-0.007748971227556467,0.0,0.0,0.0,0.0,-0.29999491024331576,-0.5196181808098181,0.5
1.396,TAKEOFF,intermittent,1.0,0.5980038046836853,0.006089640781283379,-0.0006108469679020345,-0.0014425248373299837,-0.01791284792125225,0.0013338146964088082,0.44591253995895386,0.23360958695411682,-0.09307410567998886,0.1505969762802124,0.30183425545692444,0.14520256221294403,0.0,0.0,0.0,0.0,0.6,0.0,0.5,-0.41839930415153503,0.5784555673599243,0.0037928393576294184,0.01103938091546297,-0.012657145038247108,-0.006144266575574875,0.45344269275665283,-1.4577080011367798,0.6665681004524231,0.13677053153514862,0.1962263584136963,0.12669627368450165,0.0,0.0,0.0,0.0,-0.3000025448675481,0.51961377298239,0.5,-0.4595384895801544,-0.5471091866493225,0.005624594632536173,-0.021014565601944923,0.019690154120326042,-0.010811526328325272,-0.0395512692630291,-0.5273982286453247,-1.4034699201583862,-0.12495208531618118,-0.04205256700515747,0.09860561788082123,0.0,0.0,0.0,0.0,-0.29999491024331576,-0.5196181808098181,0.5
1.416,TAKEOFF,intermittent,1.0,0.5980038046836853,0.006089640781283379,-0.0006108469679020345,-0.0017079472308978438,-0.018599310889840126,0.0014279031893238425,0.4476920962333679,0.23270714282989502,-0.09263739734888077,-0.18987728655338287,0.07500234991312027,-0.09375617653131485,0.0,0.0,0.0,0.0,0.6,0.0,0.5,-0.41839930415153503,0.5784555673599243,0.0037928393576294184,0.011212924495339394,-0.013126847334206104,-0.006465713027864695,0.45433518290519714,-1.4571411609649658,0.6660874485969543,-0.16176043450832367,-0.24386243522167206,-0.09085524082183838,0.0,0.0,0.0,0.0,-0.3000025448675481,0.51961377298239,0.5,-0.4595384895801544,-0.5471091866493225,0.005624594632536173,-0.019928259775042534,0.02040291577577591,-0.006130156107246876,0.010047279298305511,-0.6052981019020081,-1.3922255039215088,-0.03776885196566582,-0.08425283432006836,-0.062309473752975464,0.0,0.0,0.0,0.0,-0.29999491024331576,-0.5196181808098181,0.5
1.436,TAKEOFF,intermittent,1.0,0.5980038046836853,0.006089640781283379,-0.0006108469679020345,0.014189032837748528,-0.02056591957807541,-0.0073795500211417675,0.46064046025276184,0.10403666645288467,-0.16008254885673523,0.19830293953418732,0.20586612820625305,0.1850055605173111,0.0,0.0,0.0,0.0,0.6,0.0,0.5,-0.41839930415153503,0.5784555673599243,0.0037928393576294184,0.011382483877241611,-0.013278651051223278,-0.0065993936732411385,0.4544837474822998,-1.4558638334274292,0.6664021015167236,0.09489761292934418,-0.366229385137558,0.0023852160666137934,0.0,0.0,0.0,0.0,-0.3000025448675481,0.51961377298239,0.5,-0.4595384895801544,-0.5471091866493225,0.005624594632536173,-0.020350201055407524,0.020910779014229774,-0.006090676877647638,-0.04082338884472847,-0.5479415655136108,-1.405670404434204,-0.0786542072892189,0.008575325831770897,-0.2405591756105423,0.0,0.0,0.0,0.0,-0.29999491024331576,-0.5196181808098181,0.5
1.457,TAKEOFF,intermittent,1.0,0.5980038046836853,0.006089640781283379,-0.0006108469679020345,0.017959097400307655,-0.01943432353436947,-0.012361926026642323,0.44760534167289734,0.07344362884759903,-0.2242431491613388,-0.043717242777347565,-0.15181659162044525,0.06120437756180763,0.0,0.0,0.0,0.0,0.6,0.0,0.5,-0.4138607084751129,0.5751058459281921,0.0031898771412670612,0.0170920267701149,-0.014867158606648445,-0.0028360497672110796,0.46632394194602966,-1.4974031448364258,0.605049192905426,0.07481008768081665,0.21992075443267822,0.024340976029634476,0.0,0.0,0.0,0.0,-0.3000025448675481,0.51961377298239,0.5,-0.4595384895801544,-0.5471091866493225,0.005624594632536173,-0.020705578848719597,0.021228903904557228,-0.0064746239222586155,-0.04172329977154732,-0.5480948090553284,-1.4060081243515015,-0.0462060309946537,-0.014089730568230152,-0.03211287036538124,0.0,0.0,0.0,0.0,-0.29999491024331576,-0.5196181808098181,0.5
1.478,TAKEOFF,intermittent,1.0,0.6021835207939148,0.004112116526812315,-0.0031471571419388056,0.01831917278468609,-0.019694603979587555,-0.012121202424168587,0.42748892307281494,0.1734396368265152,-0.21675969660282135,-0.11574192345142365,0.062214065343141556,0.15012817084789276,0.0,0.0,0.0,0.0,0.6,0.0,0.5,-0.4138607084751129,0.5751058459281921,0.0031898771412670612,0.019152652472257614,-0.014912706799805164,-0.0074693006463348866,0.45845362544059753,-1.508402705192566,0.5684794783592224,-0.09043573588132858,-0.24365729093551636,-0.03916267305612564,0.0,0.0,0.0,0.0,-0.3000025448675481,0.51961377298239,0.5,-0.46096354722976685,-0.545628547668457,0.005516539793461561,-0.020705578848719597,0.021228903904557228,-0.0064746239222586155,-0.04125302657485008,-0.5505212545394897,-1.406043291091919,-0.032896727323532104,-0.08418970555067062,-0.09059018641710281,0.0,0.0,0.0,0.0,-0.29999491024331576,-0.5196181808098181,0.5
1.496,TAKEOFF,intermittent,1.0,0.6021835207939148,0.004112116526812315,-0.0031471571419388056,0.007017092313617468,-0.017923980951309204,0.002172146225348115,0.42748892307281494,0.1734396368265152,-0.21675969660282135,-0.11574192345142365,0.062214065343141556,0.15012817084789276,0.0,0.0,0.0,0.0,0.6,0.0,0.5,-0.4138607084751129,0.5751058459281921,0.0031898771412670612,0.00516316294670105,-0.006546236574649811,-0.0007509940187446773,0.3878643810749054,-1.3920587301254272,0.638155996799469,0.029315104708075523,-0.04683738201856613,0.17540447413921356,0.0,0.0,0.0,0.0,-0.3000025448675481,0.51961377298239,0.5,-0.46096354722976685,-0.545628547668457,0.005516539793461561,-0.017310630530118942,0.01878441870212555,-0.003874349407851696,-0.020955542102456093,-0.5868353843688965,-1.4318042993545532,-0.020844368264079094,0.09984588623046875,0.2714790403842926,0.0,0.0,0.0,0.0,-0.29999491024331576,-0.5196181808098181,0.5
1.516,TAKEOFF,intermittent,1.0,0.6021835207939148,0.004112116526812315,-0.0031471571419388056,0.010606850497424603,-0.000624796433839947,-0.000587326823733747,0.28801167011260986,0.1474650353193283,-0.19487988948822021,-0.06031414493918419,-0.07145406305789948,-0.019560273736715317,0.0,0.0,0.0,0.0,0.6,0.0,0.5,-0.4138607084751129,0.5751058459281921,0.0031898771412670612,0.005246166605502367,-0.006521561183035374,-0.0009438818669877946,0.38881537318229675,-1.3943170309066772,0.6363016366958618,0.16913725435733795,0.3502621650695801,-0.09051170200109482,0.0,0.0,0.0,0.0,-0.3000025448675481,0.51961377298239,0.5,-0.46096354722976685,-0.545628547668457,0.005516539793461561,-0.018327172845602036,0.020322006195783615,-0.0024896925315260887,0.008604268543422222,-0.6241373419761658,-1.4220199584960938,0.06718451529741287,0.15462209284305573,0.028291111811995506,0.0,0.0,0.0,0.0,-0.29999491024331576,-0.5196181808098181,0.5
1.537,TAKEOFF,intermittent,1.0,0.6021835207939148,0.004112116526812315,-0.0031471571419388056,0.015150034800171852,-0.0010994808981195092,-0.0016410157550126314,0.33487340807914734,0.1755797564983368,-0.23366591334342957,-0.15690819919109344,0.29085609316825867,0.08501581847667694,0.0,0.0,0.0,0.0,0.6,0.0,0.5,-0.4138607084751129,0.5751058459281921,0.0031898771412670612,0.00011908423766726628,0.0016165307024493814,0.00180762296076864,0.4023147225379944,-1.4210623502731323,0.6476479172706604,0.04181671887636185,-0.21631351113319397,0.0519510880112648,0.0,0.0,0.0,0.0,-0.3000025448675481,0.51961377298239,0.5,-0.46096354722976685,-0.545628547668457,0.005516539793461561,-0.012615635059773922,0.01648397371172905,-0.001363063114695251,-0.0026413267478346825,-0.6333981156349182,-1.4006608724594116,-0.09956672042608261,0.04553929716348648,0.1619037389755249,0.0,0.0,0.0,0.0,-0.29999491024331576,-0.5196181808098181,0.5
1.558,TAKEOFF,intermittent,1.0,0.6021835207939148,0.004112116526812315,-0.0031471571419388056,0.011158236302435398,-0.007522433530539274,-0.0020786963868886232,0.33487340807914734,0.1755797564983368,-0.23366591334342957,-0.15690819919109344,0.29085609316825867,0.08501581847667694,0.0,0.0,0.0,0.0,0.6,0.0,0.5,-0.4138607084751129,0.5751058459281921,0.0031898771412670612,0.008184991776943207,-0.007938431575894356,0.0009059553849510849,0.42753514647483826,-1.4511337280273438,0.6053585410118103,-0.32061028480529785,0.07665303349494934,0.22230425477027893,0.0,0.0,0.0,0.0,-0.3000025448675481,0.51961377298239,0.5,-0.46096354722976685,-0.545628547668457,0.005516539793461561,-0.004923330619931221,0.009894904680550098,0.0012475606054067612,0.05081374570727348,-0.6987487077713013,-1.3738813400268555,0.03194085508584976,-0.01947031170129776,0.13249213993549347,0.0,0.0,0.0,0.0,-0.29999491024331576,-0.5196181808098181,0.5
1.576,TAKEOFF,intermittent,1.0,0.5987482070922852,0.00504276854917407,-0.0008774662273935974,0.010772633366286755,-0.008637731894850731,-0.0004930278519168496,0.3501352071762085,0.17608797550201416,-0.2763493061065674,0.0750121921300888,-0.14409223198890686,0.13215422630310059,0.0,0.0,0.0,0.0,0.6,0.0,0.5,-0.41467738151550293,0.5757932662963867,0.0037972882855683565,0.012113269418478012,-0.011170717887580395,0.001315376372076571,0.4259989857673645,-1.4464483261108398,0.5981895923614502,0.03332146629691124,-0.030970145016908646,0.0822608694434166,0.0,0.0,0.0,0.0,-0.3000025448675481,0.51961377298239,0.5,-0.4541642367839813,-0.5500718355178833,0.0067853378131985664,0.002293649595230818,0.003093093866482377,0.004086678382009268,0.1053207591176033,-0.7603837847709656,-1.358181118965149,-0.1347450166940689,0.24766457080841064,-0.020443500950932503,0.0,0.0,0.0,0.0,-0.29999491024331576,-0.5196181808098181,0.5
1.597,TAKEOFF,intermittent,1.0,0.5987482070922852,0.00504276854917407,-0.0008774662273935974,0.011394807137548923,-0.005317204166203737,0.0026259555015712976,0.2836407721042633,0.17690299451351166,-0.22541485726833344,-0.051844581961631775,0.3210880160331726,0.08177397400140762,0.0,0.0,0.0,0.0,0.6,0.0,0.5,-0.41467738151550293,0.5757932662963867,0.0037972882855683565,-3.328453021822497e-05,-0.0011469773016870022,0.0036291852593421936,0.3434368669986725,-1.3459230661392212,0.6553423404693604,-0.14645236730575562,-0.3000938594341278,0.0038546540308743715,0.0,0.0,0.0,0.0,-0.3000025448675481,0.51961377298239,0.5,-0.4541642367839813,-0.5500718355178833,0.0067853378131985664,0.007823769934475422,-0.00237441249191761,0.006348539609462023,0.14645792543888092,-0.8082833290100098,-1.3466230630874634,-0.23575739562511444,0.20784135162830353,0.07276375591754913,0.0,0.0,0.0,0.0,-0.29999491024331576,-0.5196181808098181,0.5
1.617,TAKEOFF,intermittent,1.0,0.5987482070922852,0.00504276854917407,-0.0008774662273935974,0.001949942554347217,-0.0030145435594022274,0.0037699195090681314,0.312406063079834,0.21406011283397675,-0.2184751033782959,0.23238375782966614,0.18375271558761597,-0.047869279980659485,0.0,0.0,0.0,0.0,0.6,0.0,0.5,-0.41467738151550293,0.5757932662963867,0.0037972882855683565,-0.004624698776751757,0.003584575839340687,0.007936743088066578,0.30321750044822693,-1.3075497150421143,0.7112322449684143,-0.0019779305439442396,-0.04917552322149277,0.2413804829120636,0.0,0.0,0.0,0.0,-0.3000025448675481,0.51961377298239,0.5,-0.4541642367839813,-0.5500718355178833,0.0067853378131985664,0.008021975867450237,-0.0023912254255264997,0.006282469257712364,0.14452557265758514,-0.811576783657074,-1.3449323177337646,-0.06309720128774643,-0.055708978325128555,-0.10274285823106766,0.0,0.0,0.0,0.0,-0.29999491024331576,-0.5196181808098181,0.5
1.637,TAKEOFF,intermittent,1.0,0.5987482070922852,0.00504276854917407,-0.0008774662273935974,0.014284822158515453,-0.006911844946444035,0.002814090345054865,0.3573876619338989,0.14405770599842072,-0.25596246123313904,0.07312984764575958,-0.005681572947651148,0.024751320481300354,0.0,0.0,0.0,0.0,0.6,0.0,0.5,-0.41467738151550293,0.5757932662963867,0.0037972882855683565,-0.0022820006124675274,0.006022225134074688,0.002772208070382476,0.2857716977596283,-1.3287333250045776,0.6912537813186646,-0.03490377590060234,-0.24195393919944763,0.06476860493421555,0.0,0.0,0.0,0.0,-0.3000025448675481,0.51961377298239,0.5,-0.4541642367839813,-0.5500718355178833,0.0067853378131985664,0.01259719766676426,-0.006855860818177462,0.008222823031246662,0.1770351082086563,-0.8443006873130798,-1.3328948020935059,-0.14925751090049744,-0.3563227355480194,0.2893622815608978,0.0,0.0,0.0,0.0,-0.29999491024331576,-0.5196181808098181,0.5
1.656,TAKEOFF,intermittent,1.0,0.5987482070922852,0.00504276854917407,-0.0008774662273935974,0.01832108199596405,-0.010267545469105244,0.0006522522890008986,0.3663247525691986,0.08947360515594482,-0.29934191703796387,0.18270115554332733,0.17532922327518463,-0.10783738642930984,0.0,0.0,0.0,0.0,0.6,0.0,0.5,-0.4187207520008087,0.5801581740379333,0.0031840684823691845,-0.001515537966042757,0.006251698359847069,-0.0003775866352953017,0.28457319736480713,-1.3386238813400269,0.6678506135940552,0.03536754846572876,0.023093054071068764,0.17467612028121948,0.0,0.0,0.0,0.0,-0.3000025448675481,0.51961377298239,0.5,-0.4541642367839813,-0.5500718355178833,0.0067853378131985664,0.013016007840633392,-0.007301260717213154,0.007989301346242428,0.1761186569929123,-0.8422492146492004,-1.3318049907684326,-0.10223573446273804,-0.06163551285862923,0.009115495719015598,0.0,0.0,0.0,0.0,-0.29999491024331576,-0.5196181808098181,0.5
1.677,TAKEOFF,intermittent,1.0,0.6013838052749634,0.0051659452728927135,-0.0008748197578825057,0.021534526720643044,-0.009317386895418167,-0.00388303492218256,0.3663247525691986,0.08947360515594482,-0.29934191703796387,0.18270115554332733,0.17532922327518463,-0.10783738642930984,0.0,0.0,0.0,0.0,0.6,0.0,0.5,-0.4187207520008087,0.5801581740379333,0.0031840684823691845,-0.001082493457943201,0.005779894068837166,-0.0023719645105302334,0.4695121943950653,-1.4974006414413452,0.6196212768554688,0.10564247518777847,0.05668339878320694,0.1586885154247284,0.0,0.0,0.0,0.0,-0.3000025448675481,0.51961377298239,0.5,-0.45303046703338623,-0.5512581467628479,0.009932843036949635,0.013016007840633392,-0.007301260717213154,0.007989301346242428,0.1674402356147766,-0.7698984146118164,-1.3559402227401733,-0.05252860113978386,-0.22279895842075348,-0.003111005062237382,0.0,0.0,0.0,0.0,-0.29999491024331576,-0.5196181808098181,0.5
1.696,TAKEOFF,intermittent,1.0,0.6013838052749634,0.0051659452728927135,-0.0008748197578825057,0.016792533919215202,-0.011458347551524639,0.0008012260077521205,0.37425562739372253,0.10265643149614334,-0.32968372106552124,0.04948463663458824,0.12000882625579834,-0.08668915182352066,0.0,0.0,0.0,0.0,0.6,0.0,0.5,-0.4187207520008087,0.5801581740379333,0.0031840684823691845,0.017228949815034866,-0.017312658950686455,0.0020843814127147198,0.47136974334716797,-1.485858678817749,0.6176390051841736,-0.11346189677715302,-0.07665061950683594,-0.11282685399055481,0.0,0.0,0.0,0.0,-0.3000025448675481,0.51961377298239,0.5,-0.45303046703338623,-0.5512581467628479,0.009932843036949635,0.004764835815876722,-0.006466984283179045,0.020385202020406723,0.16802988946437836,-0.7681154608726501,-1.354854702949524,-0.13084515929222107,-0.02205294743180275,-0.09122797101736069,0.0,0.0,0.0,0.0,-0.29999491024331576,-0.5196181808098181,0.5
1.718,TAKEOFF,intermittent,1.0,0.6013838052749634,0.0051659452728927135,-0.0008748197578825057,0.026229377835989,-0.011135888285934925,-0.005840675439685583,0.36992061138153076,0.03431278467178345,-0.3701692223548889,-0.10990354418754578,0.09847527742385864,-0.24832481145858765,0.0,0.0,0.0,0.0,0.6,0.0,0.5,-0.4187207520008087,0.5801581740379333,0.0031840684823691845,0.0229390449821949,-0.01942230947315693,-0.003745559137314558,0.4863004684448242,-1.5303726196289062,0.5837741494178772,0.04473651945590973,0.2636014223098755,0.11041492223739624,0.0,0.0,0.0,0.0,-0.3000025448675481,0.51961377298239,0.5,-0.45303046703338623,-0.5512581467628479,0.009932843036949635,0.00460757315158844,-0.00678435992449522,0.02020941488444805,0.16720150411128998,-0.7687610983848572,-1.3545632362365723,-0.21429315209388733,0.047238294035196304,-0.03089005872607231,0.0,0.0,0.0,0.0,-0.29999491024331576,-0.5196181808098181,0.5
1.736,TAKEOFF,intermittent,1.0,0.6013838052749634,0.0051659452728927135,-0.0008748197578825057,0.026525434106588364,-0.011195073835551739,-0.005649155471473932,0.37112781405448914,0.03289450332522392,-0.37150144577026367,0.07736434787511826,-0.23806433379650116,-0.025243233889341354,0.0,0.0,0.0,0.0,0.6,0.0,0.5,-0.4187207520008087,0.5801581740379333,0.0031840684823691845,0.023726560175418854,-0.019725630059838295,-0.003942797891795635,0.48505672812461853,-1.5309420824050903,0.5830905437469482,-9.26951106521301e-05,-0.24046027660369873,-0.11293159425258636,0.0,0.0,0.0,0.0,-0.3000025448675481,0.51961377298239,0.5,-0.45303046703338623,-0.5512581467628479,0.009932843036949635,0.002100075362250209,-0.004901103675365448,0.025471873581409454,0.1490851789712906,-0.7498497366905212,-1.3886737823486328,-0.17030993103981018,0.04621881619095802,0.1323537826538086,0.0,0.0,0.0,0.0,-0.29999491024331576,-0.5196181808098181,0.5
1.756,TAKEOFF,intermittent,1.0,0.6013838052749634,0.0051659452728927135,-0.0008748197578825057,0.027149513363838196,-0.011564681306481361,-0.005362045485526323,0.3715802729129791,0.0333600752055645,-0.3728468120098114,-0.09093605726957321,-0.10767483711242676,-0.24715791642665863,0.0,0.0,0.0,0.0,0.6,0.0,0.5,-0.4187207520008087,0.5801581740379333,0.0031840684823691845,0.024365680292248726,-0.020211875438690186,-0.003917291760444641,0.4833459258079529,-1.530778408050537,0.5819787979125977,-0.15075774490833282,-0.03913750872015953,-0.06202976778149605,0.0,0.0,0.0,0.0,-0.3000025448675481,0.51961377298239,0.5,-0.45303046703338623,-0.5512581467628479,0.009932843036949635,0.004468927159905434,-0.0050367373041808605,0.02267594449222088,0.14673355221748352,-0.7690608501434326,-1.3966782093048096,0.23871205747127533,-0.12350352108478546,0.0642160177230835,0.0,0.0,0.0,0.0,-0.29999491024331576,-0.5196181808098181,0.5
1.779,TAKEOFF,intermittent,1.0,0.6029127836227417,0.0039158775471150875,-0.0020223907195031643,0.025348534807562828,-0.00636592460796237,-0.010930859483778477,0.3305138349533081,0.05242972448468208,-0.4239600896835327,-0.16896817088127136,0.129560649394989,0.05416927859187126,0.0,0.0,0.0,0.0,0.6,0.0,0.5,-0.41314008831977844,0.5743065476417542,0.004913141950964928,0.018867578357458115,-0.020381959155201912,0.0056569380685687065,0.4812116026878357,-1.4806933403015137,0.5831080079078674,0.09017344564199448,0.07304474711418152,0.08047381788492203,0.0,0.0,0.0,0.0,-0.3000025448675481,0.51961377298239,0.5,-0.4527115225791931,-0.5512622594833374,0.012801175937056541,0.004468927159905434,-0.0050367373041808605,0.02267594449222088,0.14266200363636017,-0.7650983929634094,-1.424391746520996,0.1275760382413864,0.09472820907831192,0.032699618488550186,0.0,0.0,0.0,0.0,-0.29999491024331576,-0.5196181808098181,0.5
1.799,TAKEOFF,intermittent,1.0,0.6029127836227417,0.0039158775471150875,-0.0020223907195031643,0.025348534807562828,-0.00636592460796237,-0.010930859483778477,0.3305138349533081,0.05242972448468208,-0.4239600896835327,-0.16896817088127136,0.129560649394989,0.05416927859187126,0.0,0.0,0.0,0.0,0.6,0.0,0.5,-0.41314008831977844,0.5743065476417542,0.004913141950964928,0.01728603057563305,-0.013951433822512627,-0.0036238152533769608,0.4309037923812866,-1.4706863164901733,0.5457338094711304,-0.1345212459564209,0.28658217191696167,-0.07587409764528275,0.0,0.0,0.0,0.0,-0.3000025448675481,0.51961377298239,0.5,-0.4527115225791931,-0.5512622594833374,0.012801175937056541,0.004408407025039196,-0.004746295511722565,0.024451036006212234,0.14266200363636017,-0.7650983929634094,-1.424391746520996,0.1275760382413864,0.09472820907831192,0.032699618488550186,0.0,0.0,0.0,0.0,-0.29999491024331576,-0.5196181808098181,0.5
1.817,TAKEOFF,intermittent,1.0,0.6029127836227417,0.0039158775471150875,-0.0020223907195031643,0.02618241310119629,-0.006412434857338667,-0.01082754135131836,0.3302021026611328,0.052179377526044846,-0.42204800248146057,-0.13010632991790771,-0.00829625315964222,0.12831144034862518,0.0,0.0,0.0,0.0,0.6,0.0,0.5,-0.41314008831977844,0.5743065476417542,0.004913141950964928,-0.008240270428359509,-0.001194292795844376,-0.00017194040992762893,0.32817867398262024,-1.27652108669281,0.6137589812278748,-0.035775698721408844,-0.05154913663864136,0.18660098314285278,0.0,0.0,0.0,0.0,-0.3000025448675481,0.51961377298239,0.5,-0.4527115225791931,-0.5512622594833374,0.012801175937056541,0.005689465440809727,-0.004591311328113079,0.02053738571703434,0.14002884924411774,-0.7768695950508118,-1.4233617782592773,0.13682705163955688,-0.023073973134160042,-0.27241581678390503,0.0,0.0,0.0,0.0,-0.29999491024331576,-0.5196181808098181,0.5
1.838,TAKEOFF,intermittent,1.0,0.6029127836227417,0.0039158775471150875,-0.0020223907195031643,0.026693247258663177,-0.006669963244348764,-0.010514307767152786,0.00010630088218022138,0.21169951558113098,-0.334778755903244,0.08443599939346313,0.08479440212249756,-0.16757014393806458,0.0,0.0,0.0,0.0,0.6,0.0,0.5,-0.41314008831977844,0.5743065476417542,0.004913141950964928,-0.008192426525056362,-0.0036440109834074974,-0.0024499401915818453,0.32817867398262024,-1.27652108669281,0.6137589812278748,-0.035775698721408844,-0.05154913663864136,0.18660098314285278,0.0,0.0,0.0,0.0,-0.3000025448675481,0.51961377298239,0.5,-0.4527115225791931,-0.5512622594833374,0.012801175937056541,0.006507793441414833,-0.00438666669651866,0.015421891584992409,0.1394922435283661,-0.7858926653862,-1.4090887308120728,0.016469920054078102,-0.023621799424290657,-0.032270647585392,0.0,0.0,0.0,0.0,-0.29999491024331576,-0.5196181808098181,0.5
1.856,TAKEOFF,intermittent,1.0,0.6029127836227417,0.0039158775471150875,-0.0020223907195031643,0.00591313187032938,0.038111403584480286,-0.004053440410643816,-0.06753048300743103,0.26747629046440125,-0.26101842522621155,-0.00173119455575943,0.23401740193367004,0.08103162050247192,0.0,0.0,0.0,0.0,0.6,0.0,0.5,-0.41314008831977844,0.5743065476417542,0.004913141950964928,-0.008574963547289371,-0.003707882482558489,-0.0021662211511284113,0.34978657960891724,-1.2866239547729492,0.6453096270561218,0.07406944781541824,0.11328679323196411,-0.22025388479232788,0.0,0.0,0.0,0.0,-0.3000025448675481,0.51961377298239,0.5,-0.4527115225791931,-0.5512622594833374,0.012801175937056541,0.00689844461157918,-0.004931068979203701,0.0148423220962286,0.13895727694034576,-0.7872262001037598,-1.4088867902755737,-0.018365340307354927,-0.006406064610928297,0.04524597153067589,0.0,0.0,0.0,0.0,-0.29999491024331576,-0.5196181808098181,0.5
1.877,TAKEOFF,intermittent,1.0,0.6029127836227417,0.0039158775471150875,-0.0020223907195031643,0.00591313187032938,0.038111403584480286,-0.004053440410643816,-0.06753048300743103,0.26747629046440125,-0.26101842522621155,-0.00173119455575943,0.23401740193367004,0.08103162050247192,0.0,0.0,0.0,0.0,0.6,0.0,0.5,-0.41314008831977844,0.5743065476417542,0.004913141950964928,-0.008574963547289371,-0.003707882482558489,-0.0021662211511284113,0.34978657960891724,-1.2866239547729492,0.6453096270561218,0.07406944781541824,0.11328679323196411,-0.22025388479232788,0.0,0.0,0.0,0.0,-0.3000025448675481,0.51961377298239,0.5,-0.4527115225791931,-0.5512622594833374,0.012801175937056541,0.00689844461157918,-0.004931068979203701,0.0148423220962286,0.13895727694034576,-0.7872262001037598,-1.4088867902755737,-0.018365340307354927,-0.006406064610928297,0.04524597153067589,0.0,0.0,0.0,0.0,-0.29999491024331576,-0.5196181808098181,0.5
1.9,TAKEOFF,intermittent,1.0,0.6029127836227417,0.0039158775471150875,-0.0020223907195031643,0.00591313187032938,0.038111403584480286,-0.004053440410643816,-0.06753048300743103,0.26747629046440125,-0.26101842522621155,-0.00173119455575943,0.23401740193367004,0.08103162050247192,0.0,0.0,0.0,0.0,0.6,0.0,0.5,-0.41314008831977844,0.5743065476417542,0.004913141950964928,-0.008574963547289371,-0.003707882482558489,-0.0021662211511284113,0.34978657960891724,-1.2866239547729492,0.6453096270561218,0.07406944781541824,0.11328679323196411,-0.22025388479232788,0.0,0.0,0.0,0.0,-0.3000025448675481,0.51961377298239,0.5,-0.4527115225791931,-0.5512622594833374,0.012801175937056541,0.00689844461157918,-0.004931068979203701,0.0148423220962286,0.13895727694034576,-0.7872262001037598,-1.4088867902755737,-0.018365340307354927,-0.006406064610928297,0.04524597153067589,0.0,0.0,0.0,0.0,-0.29999491024331576,-0.5196181808098181,0.5
1.919,TAKEOFF,intermittent,1.0,0.6029127836227417,0.0039158775471150875,-0.0020223907195031643,0.00591313187032938,0.038111403584480286,-0.004053440410643816,-0.06753048300743103,0.26747629046440125,-0.26101842522621155,-0.00173119455575943,0.23401740193367004,0.08103162050247192,0.0,0.0,0.0,0.0,0.6,0.0,0.5,-0.41314008831977844,0.5743065476417542,0.004913141950964928,-0.008574963547289371,-0.003707882482558489,-0.0021662211511284113,0.34978657960891724,-1.2866239547729492,0.6453096270561218,0.07406944781541824,0.11328679323196411,-0.22025388479232788,0.0,0.0,0.0,0.0,-0.3000025448675481,0.51961377298239,0.5,-0.4527115225791931,-0.5512622594833374,0.012801175937056541,0.00689844461157918,-0.004931068979203701,0.0148423220962286,0.13895727694034576,-0.7872262001037598,-1.4088867902755737,-0.018365340307354927,-0.006406064610928297,0.04524597153067589,0.0,0.0,0.0,0.0,-0.29999491024331576,-0.5196181808098181,0.5
1.937,TAKEOFF,intermittent,1.0,0.6029127836227417,0.0039158775471150875,-0.0020223907195031643,0.00591313187032938,0.038111403584480286,-0.004053440410643816,-0.06753048300743103,0.26747629046440125,-0.26101842522621155,-0.00173119455575943,0.23401740193367004,0.08103162050247192,0.0,0.0,0.0,0.0,0.6,0.0,0.5,-0.41314008831977844,0.5743065476417542,0.004913141950964928,-0.008574963547289371,-0.003707882482558489,-0.0021662211511284113,0.34978657960891724,-1.2866239547729492,0.6453096270561218,0.07406944781541824,0.11328679323196411,-0.22025388479232788,0.0,0.0,0.0,0.0,-0.3000025448675481,0.51961377298239,0.5,-0.4527115225791931,-0.5512622594833374,0.012801175937056541,0.00689844461157918,-0.004931068979203701,0.0148423220962286,0.13895727694034576,-0.7872262001037598,-1.4088867902755737,-0.018365340307354927,-0.006406064610928297,0.04524597153067589,0.0,0.0,0.0,0.0,-0.29999491024331576,-0.5196181808098181,0.5
1.958,TAKEOFF,intermittent,1.0,0.6029127836227417,0.0039158775471150875,-0.0020223907195031643,0.00591313187032938,0.038111403584480286,-0.004053440410643816,-0.06753048300743103,0.26747629046440125,-0.26101842522621155,-0.00173119455575943,0.23401740193367004,0.08103162050247192,0.0,0.0,0.0,0.0,0.6,0.0,0.5,-0.41314008831977844,0.5743065476417542,0.004913141950964928,-0.008574963547289371,-0.003707882482558489,-0.0021662211511284113,0.34978657960891724,-1.2866239547729492,0.6453096270561218,0.07406944781541824,0.11328679323196411,-0.22025388479232788,0.0,0.0,0.0,0.0,-0.3000025448675481,0.51961377298239,0.5,-0.4527115225791931,-0.5512622594833374,0.012801175937056541,0.00689844461157918,-0.004931068979203701,0.0148423220962286,0.13895727694034576,-0.7872262001037598,-1.4088867902755737,-0.018365340307354927,-0.006406064610928297,0.04524597153067589,0.0,0.0,0.0,0.0,-0.29999491024331576,-0.5196181808098181,0.5
1.976,TAKEOFF,intermittent,1.0,0.6029127836227417,0.0039158775471150875,-0.0020223907195031643,0.00591313187032938,0.038111403584480286,-0.004053440410643816,-0.06753048300743103,0.26747629046440125,-0.26101842522621155,-0.00173119455575943,0.23401740193367004,0.08103162050247192,0.0,0.0,0.0,0.0,0.6,0.0,0.5,-0.41314008831977844,0.5743065476417542,0.004913141950964928,-0.008574963547289371,-0.003707882482558489,-0.0021662211511284113,0.34978657960891724,-1.2866239547729492,0.6453096270561218,0.07406944781541824,0.11328679323196411,-0.22025388479232788,0.0,0.0,0.0,0.0,-0.3000025448675481,0.51961377298239,0.5,-0.4527115225791931,-0.5512622594833374,0.012801175937056541,0.00689844461157918,-0.004931068979203701,0.0148423220962286,0.13895727694034576,-0.7872262001037598,-1.4088867902755737,-0.018365340307354927,-0.006406064610928297,0.04524597153067589,0.0,0.0,0.0,0.0,-0.29999491024331576,-0.5196181808098181,0.5
1.996,TAKEOFF,intermittent,1.0,0.6029127836227417,0.0039158775471150875,-0.0020223907195031643,0.00591313187032938,0.038111403584480286,-0.004053440410643816,-0.06753048300743103,0.26747629046440125,-0.26101842522621155,-0.00173119455575943,0.23401740193367004,0.08103162050247192,0.0,0.0,0.0,0.0,0.6,0.0,0.5,-0.41314008831977844,0.5743065476417542,0.004913141950964928,-0.008574963547289371,-0.003707882482558489,-0.0021662211511284113,0.34978657960891724,-1.2866239547729492,0.6453096270561218,0.07406944781541824,0.11328679323196411,-0.22025388479232788,0.0,0.0,0.0,0.0,-0.3000025448675481,0.51961377298239,0.5,-0.4527115225791931,-0.5512622594833374,0.012801175937056541,0.00689844461157918,-0.004931068979203701,0.0148423220962286,0.13895727694034576,-0.7872262001037598,-1.4088867902755737,-0.018365340307354927,-0.006406064610928297,0.04524597153067589,0.0,0.0,0.0,0.0,-0.29999491024331576,-0.5196181808098181,0.5
2.018,TAKEOFF,intermittent,1.0,0.6029127836227417,0.0039158775471150875,-0.0020223907195031643,0.00591313187032938,0.038111403584480286,-0.004053440410643816,-0.06753048300743103,0.26747629046440125,-0.26101842522621155,-0.00173119455575943,0.23401740193367004,0.08103162050247192,0.0,0.0,0.0,0.0,0.6,0.0,0.5,-0.41314008831977844,0.5743065476417542,0.004913141950964928,-0.008574963547289371,-0.003707882482558489,-0.0021662211511284113,0.34978657960891724,-1.2866239547729492,0.6453096270561218,0.07406944781541824,0.11328679323196411,-0.22025388479232788,0.0,0.0,0.0,0.0,-0.3000025448675481,0.51961377298239,0.5,-0.4527115225791931,-0.5512622594833374,0.012801175937056541,0.00689844461157918,-0.004931068979203701,0.0148423220962286,0.13895727694034576,-0.7872262001037598,-1.4088867902755737,-0.018365340307354927,-0.006406064610928297,0.04524597153067589,0.0,0.0,0.0,0.0,-0.29999491024331576,-0.5196181808098181,0.5
2.039,TAKEOFF,intermittent,1.0,0.6029127836227417,0.0039158775471150875,-0.0020223907195031643,0.00591313187032938,0.038111403584480286,-0.004053440410643816,-0.06753048300743103,0.26747629046440125,-0.26101842522621155,-0.00173119455575943,0.23401740193367004,0.08103162050247192,0.0,0.0,0.0,0.0,0.6,0.0,0.5,-0.41314008831977844,0.5743065476417542,0.004913141950964928,-0.008574963547289371,-0.003707882482558489,-0.0021662211511284113,0.34978657960891724,-1.2866239547729492,0.6453096270561218,0.07406944781541824,0.11328679323196411,-0.22025388479232788,0.0,0.0,0.0,0.0,-0.3000025448675481,0.51961377298239,0.5,-0.4527115225791931,-0.5512622594833374,0.012801175937056541,0.00689844461157918,-0.004931068979203701,0.0148423220962286,0.13895727694034576,-0.7872262001037598,-1.4088867902755737,-0.018365340307354927,-0.006406064610928297,0.04524597153067589,0.0,0.0,0.0,0.0,-0.29999491024331576,-0.5196181808098181,0.5
2.058,TAKEOFF,intermittent,1.0,0.6029127836227417,0.0039158775471150875,-0.0020223907195031643,0.00591313187032938,0.038111403584480286,-0.004053440410643816,-0.06753048300743103,0.26747629046440125,-0.26101842522621155,-0.00173119455575943,0.23401740193367004,0.08103162050247192,0.0,0.0,0.0,0.0,0.6,0.0,0.5,-0.41314008831977844,0.5743065476417542,0.004913141950964928,-0.008574963547289371,-0.003707882482558489,-0.0021662211511284113,0.34978657960891724,-1.2866239547729492,0.6453096270561218,0.07406944781541824,0.11328679323196411,-0.22025388479232788,0.0,0.0,0.0,0.0,-0.3000025448675481,0.51961377298239,0.5,-0.4527115225791931,-0.5512622594833374,0.012801175937056541,0.00689844461157918,-0.004931068979203701,0.0148423220962286,0.13895727694034576,-0.7872262001037598,-1.4088867902755737,-0.018365340307354927,-0.006406064610928297,0.04524597153067589,0.0,0.0,0.0,0.0,-0.29999491024331576,-0.5196181808098181,0.5
2.077,TAKEOFF,intermittent,1.0,0.6029127836227417,0.0039158775471150875,-0.0020223907195031643,0.00591313187032938,0.038111403584480286,-0.004053440410643816,-0.06753048300743103,0.26747629046440125,-0.26101842522621155,-0.00173119455575943,0.23401740193367004,0.08103162050247192,0.0,0.0,0.0,0.0,0.6,0.0,0.5,-0.41314008831977844,0.5743065476417542,0.004913141950964928,-0.008574963547289371,-0.003707882482558489,-0.0021662211511284113,0.34978657960891724,-1.2866239547729492,0.6453096270561218,0.07406944781541824,0.11328679323196411,-0.22025388479232788,0.0,0.0,0.0,0.0,-0.3000025448675481,0.51961377298239,0.5,-0.4527115225791931,-0.5512622594833374,0.012801175937056541,0.00689844461157918,-0.004931068979203701,0.0148423220962286,0.13895727694034576,-0.7872262001037598,-1.4088867902755737,-0.018365340307354927,-0.006406064610928297,0.04524597153067589,0.0,0.0,0.0,0.0,-0.29999491024331576,-0.5196181808098181,0.5
2.096,TAKEOFF,intermittent,1.0,0.6029127836227417,0.0039158775471150875,-0.0020223907195031643,0.00591313187032938,0.038111403584480286,-0.004053440410643816,-0.06753048300743103,0.26747629046440125,-0.26101842522621155,-0.00173119455575943,0.23401740193367004,0.08103162050247192,0.0,0.0,0.0,0.0,0.6,0.0,0.5,-0.41314008831977844,0.5743065476417542,0.004913141950964928,-0.008574963547289371,-0.003707882482558489,-0.0021662211511284113,0.34978657960891724,-1.2866239547729492,0.6453096270561218,0.07406944781541824,0.11328679323196411,-0.22025388479232788,0.0,0.0,0.0,0.0,-0.3000025448675481,0.51961377298239,0.5,-0.4527115225791931,-0.5512622594833374,0.012801175937056541,0.00689844461157918,-0.004931068979203701,0.0148423220962286,0.13895727694034576,-0.7872262001037598,-1.4088867902755737,-0.018365340307354927,-0.006406064610928297,0.04524597153067589,0.0,0.0,0.0,0.0,-0.29999491024331576,-0.5196181808098181,0.5
2.116,TAKEOFF,intermittent,1.0,0.6029127836227417,0.0039158775471150875,-0.0020223907195031643,0.00591313187032938,0.038111403584480286,-0.004053440410643816,-0.06753048300743103,0.26747629046440125,-0.26101842522621155,-0.00173119455575943,0.23401740193367004,0.08103162050247192,0.0,0.0,0.0,0.0,0.6,0.0,0.5,-0.41314008831977844,0.5743065476417542,0.004913141950964928,-0.008574963547289371,-0.003707882482558489,-0.0021662211511284113,0.34978657960891724,-1.2866239547729492,0.6453096270561218,0.07406944781541824,0.11328679323196411,-0.22025388479232788,0.0,0.0,0.0,0.0,-0.3000025448675481,0.51961377298239,0.5,-0.4527115225791931,-0.5512622594833374,0.012801175937056541,0.00689844461157918,-0.004931068979203701,0.0148423220962286,0.13895727694034576,-0.7872262001037598,-1.4088867902755737,-0.018365340307354927,-0.006406064610928297,0.04524597153067589,0.0,0.0,0.0,0.0,-0.29999491024331576,-0.5196181808098181,0.5
2.138,TAKEOFF,intermittent,1.0,0.6029127836227417,0.0039158775471150875,-0.0020223907195031643,0.00591313187032938,0.038111403584480286,-0.004053440410643816,-0.06753048300743103,0.26747629046440125,-0.26101842522621155,-0.00173119455575943,0.23401740193367004,0.08103162050247192,0.0,0.0,0.0,0.0,0.6,0.0,0.5,-0.41314008831977844,0.5743065476417542,0.004913141950964928,-0.008574963547289371,-0.003707882482558489,-0.0021662211511284113,0.34978657960891724,-1.2866239547729492,0.6453096270561218,0.07406944781541824,0.11328679323196411,-0.22025388479232788,0.0,0.0,0.0,0.0,-0.3000025448675481,0.51961377298239,0.5,-0.4527115225791931,-0.5512622594833374,0.012801175937056541,0.00689844461157918,-0.004931068979203701,0.0148423220962286,0.13895727694034576,-0.7872262001037598,-1.4088867902755737,-0.018365340307354927,-0.006406064610928297,0.04524597153067589,0.0,0.0,0.0,0.0,-0.29999491024331576,-0.5196181808098181,0.5
2.156,TAKEOFF,intermittent,1.0,0.6029127836227417,0.0039158775471150875,-0.0020223907195031643,0.00591313187032938,0.038111403584480286,-0.004053440410643816,-0.06753048300743103,0.26747629046440125,-0.26101842522621155,-0.00173119455575943,0.23401740193367004,0.08103162050247192,0.0,0.0,0.0,0.0,0.6,0.0,0.5,-0.41314008831977844,0.5743065476417542,0.004913141950964928,-0.008574963547289371,-0.003707882482558489,-0.0021662211511284113,0.34978657960891724,-1.2866239547729492,0.6453096270561218,0.07406944781541824,0.11328679323196411,-0.22025388479232788,0.0,0.0,0.0,0.0,-0.3000025448675481,0.51961377298239,0.5,-0.4527115225791931,-0.5512622594833374,0.012801175937056541,0.00689844461157918,-0.004931068979203701,0.0148423220962286,0.13895727694034576,-0.7872262001037598,-1.4088867902755737,-0.018365340307354927,-0.006406064610928297,0.04524597153067589,0.0,0.0,0.0,0.0,-0.29999491024331576,-0.5196181808098181,0.5
2.176,TAKEOFF,intermittent,1.0,0.6029127836227417,0.0039158775471150875,-0.0020223907195031643,0.00591313187032938,0.038111403584480286,-0.004053440410643816,-0.06753048300743103,0.26747629046440125,-0.26101842522621155,-0.00173119455575943,0.23401740193367004,0.08103162050247192,0.0,0.0,0.0,0.0,0.6,0.0,0.5,-0.41314008831977844,0.5743065476417542,0.004913141950964928,-0.008574963547289371,-0.003707882482558489,-0.0021662211511284113,0.34978657960891724,-1.2866239547729492,0.6453096270561218,0.07406944781541824,0.11328679323196411,-0.22025388479232788,0.0,0.0,0.0,0.0,-0.3000025448675481,0.51961377298239,0.5,-0.4527115225791931,-0.5512622594833374,0.012801175937056541,0.00689844461157918,-0.004931068979203701,0.0148423220962286,0.13895727694034576,-0.7872262001037598,-1.4088867902755737,-0.018365340307354927,-0.006406064610928297,0.04524597153067589,0.0,0.0,0.0,0.0,-0.29999491024331576,-0.5196181808098181,0.5
2.198,TAKEOFF,intermittent,1.0,0.6029127836227417,0.0039158775471150875,-0.0020223907195031643,0.00591313187032938,0.038111403584480286,-0.004053440410643816,-0.06753048300743103,0.26747629046440125,-0.26101842522621155,-0.00173119455575943,0.23401740193367004,0.08103162050247192,0.0,0.0,0.0,0.0,0.6,0.0,0.5,-0.41314008831977844,0.5743065476417542,0.004913141950964928,-0.008574963547289371,-0.003707882482558489,-0.0021662211511284113,0.34978657960891724,-1.2866239547729492,0.6453096270561218,0.07406944781541824,0.11328679323196411,-0.22025388479232788,0.0,0.0,0.0,0.0,-0.3000025448675481,0.51961377298239,0.5,-0.4527115225791931,-0.5512622594833374,0.012801175937056541,0.00689844461157918,-0.004931068979203701,0.0148423220962286,0.13895727694034576,-0.7872262001037598,-1.4088867902755737,-0.018365340307354927,-0.006406064610928297,0.04524597153067589,0.0,0.0,0.0,0.0,-0.29999491024331576,-0.5196181808098181,0.5
2.219,TAKEOFF,intermittent,1.0,0.5974988341331482,0.0074427262879908085,-0.0004086625121999532,-0.014885657466948032,0.018210936337709427,-0.003868401749059558,0.2081897109746933,0.302127867937088,-0.06165393441915512,0.12159299105405807,0.18683016300201416,-0.21269591152668,0.0,0.0,0.0,0.0,0.6,0.0,0.5,-0.4151793420314789,0.576294481754303,0.003931131679564714,-0.03000764735043049,0.018216479569673538,0.006762951146811247,0.19550924003124237,-1.141623616218567,0.7033871412277222,0.14146825671195984,-0.023674212396144867,-0.11662493646144867,0.0,0.0,0.0,0.0,-0.3000025448675481,0.51961377298239,0.5,-0.4617154002189636,-0.5462188124656677,0.004652158357203007,-0.023432640358805656,0.01836765743792057,-0.019878143444657326,-0.01664680615067482,-0.5780003666877747,-1.4749021530151367,0.2151288539171219,0.0616440586745739,0.006510500330477953,0.0,0.0,0.0,0.0,-0.29999491024331576,-0.5196181808098181,0.5
2.241,TAKEOFF,intermittent,1.0,0.5947494506835938,0.0101965656504035,-0.0011367497500032187,0.00814239215105772,0.0032960313837975264,0.00036623465712182224,0.33030763268470764,0.13774096965789795,-0.062451064586639404,0.12519888579845428,-0.04220791533589363,0.23515684902668,0.0,0.0,0.0,0.0,0.6,0.0,0.5,-0.4201880991458893,0.5799093246459961,0.004820456728339195,-0.006915584672242403,0.0018482221057638526,-0.001634040498174727,0.3333601951599121,-1.333776593208313,0.6828131675720215,0.04753252491354942,-0.07870788127183914,-0.23741626739501953,0.0,0.0,0.0,0.0,-0.3000025448675481,0.51961377298239,0.5,-0.4617755711078644,-0.5463210344314575,0.0038557995576411486,0.0007979221409186721,0.013039507903158665,-0.0057131643407046795,0.08878672122955322,-0.859091579914093,-1.4076671600341797,-0.10693316906690598,-0.1232963353395462,0.020203618332743645,0.0,0.0,0.0,0.0,-0.29999491024331576,-0.5196181808098181,0.5
2.257,TAKEOFF,intermittent,1.0,0.5981682538986206,0.00777108408510685,-0.0005378688802011311,0.013636359944939613,-0.011881723068654537,0.003475144039839506,0.4461636543273926,0.09824912250041962,-0.11590631306171417,0.22862161695957184,-0.028758356347680092,0.1493624746799469,0.0,0.0,0.0,0.0,0.6,0.0,0.5,-0.4194653034210205,0.5792873501777649,0.0038237327244132757,-0.013595148921012878,0.011997723020613194,0.008787712082266808,0.2595272362232208,-1.284347414970398,0.8593841195106506,0.07531658560037613,-0.3183596432209015,-0.196964293718338,0.0,0.0,0.0,0.0,-0.3000025448675481,0.51961377298239,0.5,-0.45581698417663574,-0.5489617586135864,0.005979526787996292,-0.006367056164890528,0.013255694881081581,-0.004869520664215088,0.020101599395275116,-0.7104957103729248,-1.4335280656814575,0.020782697945833206,0.22478854656219482,0.005504012107849121,0.0,0.0,0.0,0.0,-0.29999491024331576,-0.5196181808098181,0.5
2.278,TAKEOFF,intermittent,1.0,0.5983605980873108,0.00572270667180419,-8.54915997479111e-05,0.01830192469060421,-0.0041987295262515545,-0.0006355525110848248,0.38341760635375977,0.06776382029056549,-0.11057285964488983,-0.3009006381034851,-0.32478755712509155,-1.17654550075531,52137.0,51926.0,51446.0,51777.0,0.6,0.0,0.5,-0.41819140315055847,0.57965487241745,0.004089100752025843,-0.0026272383984178305,0.0001141752436524257,-0.002650090493261814,0.3387000262737274,-1.3664746284484863,0.8630555868148804,0.020293112844228745,0.0002393635513726622,0.08844587206840515,53020.0,51747.0,52103.0,52398.0,-0.3000025448675481,0.51961377298239,0.5,-0.45581698417663574,-0.5489617586135864,0.005979526787996292,-0.008885402232408524,0.016478320583701134,-0.005458315834403038,0.0032088952139019966,-0.6930333375930786,-1.442983865737915,-0.10542578995227814,0.24120736122131348,-0.059563033282756805,52061.0,52571.0,51945.0,53142.0,-0.29999491024331576,-0.5196181808098181,0.5
2.297,TAKEOFF,intermittent,1.0,0.5983605980873108,0.00572270667180419,-8.54915997479111e-05,0.010541509836912155,-0.008048438467085361,0.0031131254509091377,0.3349226415157318,0.1655879020690918,-0.04891198128461838,-0.4026707708835602,0.8354368805885315,3.679063558578491,52587.0,52602.0,51756.0,51811.0,0.6,0.0,0.5,-0.41819140315055847,0.57965487241745,0.004089100752025843,-0.0026272383984178305,0.0001141752436524257,-0.002650090493261814,0.3768572211265564,-1.377105951309204,0.843250572681427,-0.03208604454994202,0.6199544072151184,0.18126946687698364,54347.0,52138.0,52352.0,53672.0,-0.3000025448675481,0.51961377298239,0.5,-0.4609714150428772,-0.5462362766265869,0.005326004698872566,-0.008885402232408524,0.016478320583701134,-0.005458315834403038,0.03847231715917587,-0.6877210140228271,-1.4723408222198486,-0.46121859550476074,-0.2484971135854721,-1.4142032861709595,52061.0,52571.0,51945.0,53142.0,-0.29999491024331576,-0.5196181808098181,0.5
2.316,TAKEOFF,intermittent,1.0,0.5983605980873108,0.00572270667180419,-8.54915997479111e-05,0.005022948607802391,0.001122854882851243,0.0022873282432556152,0.3349226415157318,0.1655879020690918,-0.04891198128461838,-0.4026707708835602,0.8354368805885315,3.679063558578491,52915.0,53355.0,53745.0,53362.0,0.6,0.0,0.5,-0.41819140315055847,0.57965487241745,0.004089100752025843,0.002114390954375267,-0.0011079726973548532,-0.002541472902521491,0.37226882576942444,-1.3833214044570923,0.8423036336898804,-0.33253464102745056,0.053634438663721085,-1.8221226930618286,55031.0,51078.0,54266.0,56621.0,-0.3000025448675481,0.51961377298239,0.5,-0.4609714150428772,-0.5462362766265869,0.005326004698872566,-0.007241392508149147,0.01186357531696558,-0.006162599194794893,0.04390304163098335,-0.6970726847648621,-1.4979791641235352,0.557391345500946,-0.9678911566734314,1.0175594091415405,54030.0,54389.0,53457.0,54978.0,-0.29999491024331576,-0.5196181808098181,0.5
2.338,TAKEOFF,intermittent,1.0,0.5983605980873108,0.00572270667180419,-8.54915997479111e-05,0.022480487823486328,-0.014613664709031582,0.008690141141414642,0.3456850051879883,0.13415299355983734,-0.12814605236053467,-1.0196819305419922,-0.5275413990020752,-18.342363357543945,52472.0,57308.0,52753.0,56506.0,0.6,0.0,0.5,-0.41819140315055847,0.57965487241745,0.004089100752025843,0.012643137946724892,-0.007636186201125383,-0.0094976257532835,0.3992956578731537,-1.3903580904006958,0.684858500957489,10.394050598144531,-5.4964985847473145,-9.376293182373047,56580.0,53655.0,56056.0,57688.0,-0.3000025448675481,0.51961377298239,0.5,-0.4609714150428772,-0.5462362766265869,0.005326004698872566,-0.0020308801904320717,0.01037461869418621,-0.005298830568790436,0.03192990645766258,-0.7097668051719666,-1.5933375358581543,-2.6017489433288574,2.482914924621582,-3.6516361236572266,56652.0,57387.0,56824.0,58610.0,-0.29999491024331576,-0.5196181808098181,0.5
2.358,TAKEOFF,intermittent,1.0,0.5983605980873108,0.00572270667180419,-8.54915997479111e-05,0.027141887694597244,-0.019420076161623,0.009365695528686047,0.43896883726119995,0.004954017233103514,-0.6396561861038208,10.845568656921387,7.236771583557129,-45.31426239013672,47708.0,58847.0,48768.0,62617.0,0.6,0.0,0.5,-0.41512882709503174,0.576597273349762,0.00316292280331254,0.017572326585650444,-0.008384126238524914,-0.009264154359698296,0.4188922643661499,-1.3984084129333496,0.557361364364624,8.547585487365723,-7.3315348625183105,-5.900207042694092,57089.0,53832.0,56117.0,58864.0,-0.3000025448675481,0.51961377298239,0.5,-0.4609714150428772,-0.5462362766265869,0.005326004698872566,0.01674174703657627,0.0009509538067504764,0.0064289383590221405,0.02871524728834629,-0.88462895154953,-1.614697813987732,0.8399100303649902,-3.441282272338867,14.487334251403809,60706.0,58852.0,57950.0,58836.0,-0.29999491024331576,-0.5196181808098181,0.5
2.377,TAKEOFF,intermittent,1.0,0.5993309617042542,0.004920536652207375,-7.146771531552076e-05,0.005022948607802391,0.001122854882851243,0.0022873282432556152,0.3349226415157318,0.1655879020690918,-0.04891198128461838,-0.4026707708835602,0.8354368805885315,3.679063558578491,52915.0,53355.0,53745.0,53362.0,0.6,0.0,0.5,-0.41512882709503174,0.576597273349762,0.00316292280331254,0.002114390954375267,-0.0011079726973548532,-0.002541472902521491,0.37226882576942444,-1.3833214044570923,0.8423036336898804,-0.33253464102745056,0.053634438663721085,-1.8221226930618286,55031.0,51078.0,54266.0,56621.0,-0.3000025448675481,0.51961377298239,0.5,-0.4564802348613739,-0.5494516491889954,0.007128866855055094,-0.007241392508149147,0.01186357531696558,-0.006162599194794893,0.03847231715917587,-0.6877210140228271,-1.4723408222198486,-0.46121859550476074,-0.2484971135854721,-1.4142032861709595,54030.0,54389.0,53457.0,54978.0,-0.29999491024331576,-0.5196181808098181,0.5
2.397,TAKEOFF,intermittent,1.0,0.5993309617042542,0.004920536652207375,-7.146771531552076e-05,0.028003860265016556,-0.023326411843299866,0.0012626949464902282,0.5400899648666382,-0.11586213111877441,-2.518066167831421,0.5625584721565247,-8.842485427856445,-23.8299560546875,54857.0,60856.0,50117.0,57631.0,0.37321503841378095,0.4697983983601902,0.5,-0.41512882709503174,0.576597273349762,0.00316292280331254,0.032260265201330185,-0.01417691819369793,-0.005774747114628553,0.4373270273208618,-1.4304605722427368,0.5223566889762878,-0.46431764960289,-10.451889991760254,8.398222923278809,57940.0,56637.0,56898.0,56607.0,-0.5937086636487076,0.08666038719314513,0.5,-0.4564802348613739,-0.5494516491889954,0.007128866855055094,0.018700651824474335,0.000449049606686458,0.010458050295710564,0.235738143324852,-0.6743693351745605,-1.0058149099349976,0.840997576713562,-6.973819255828857,11.35102367401123,61494.0,60678.0,58782.0,57774.0,0.22335691919824238,-0.5568767248200178,0.5
2.416,TAKEOFF,intermittent,1.0,0.5993309617042542,0.004920536652207375,-7.146771531552076e-05,0.015166830271482468,-0.0009630588465370238,0.010038847103714943,0.810025155544281,-0.07389236986637115,-3.1526002883911133,25.89092445373535,-4.508213996887207,-14.217303276062012,53674.0,61484.0,53096.0,56050.0,0.36927455532124465,0.47290200125638826,0.5,-0.41512882709503174,0.576597273349762,0.00316292280331254,0.03719184920191765,-0.015704385936260223,0.0017491745529696345,0.41670840978622437,-1.1990801095962524,0.6840248107910156,-9.702021598815918,-16.476472854614258,10.413701057434082,57568.0,56741.0,59144.0,55430.0,-0.5944123843660117,0.08169404698209524,0.5,-0.4564802348613739,-0.5494516491889954,0.007128866855055094,0.03363797813653946,-0.0070970202796161175,0.023706408217549324,0.35167548060417175,-0.7012313008308411,-0.7461131811141968,10.785218238830566,7.992115020751953,15.468562126159668,63068.0,58846.0,58172.0,60535.0,0.22800451685999223,-0.5549900362091571,0.5
2.437,TAKEOFF,intermittent,1.0,0.5993309617042542,0.004920536652207375,-7.146771531552076e-05,0.015396816655993462,-0.0037059015594422817,0.027395348995923996,0.810025155544281,-0.07389236986637115,-3.1526002883911133,25.89092445373535,-4.508213996887207,-14.217303276062012,56724.0,60971.0,50378.0,56336.0,0.36530826428863816,0.4759725538751394,0.5,-0.41512882709503174,0.576597273349762,0.00316292280331254,0.012269887141883373,0.0021592522971332073,0.029521863907575607,0.0809367299079895,-0.6011252999305725,0.9110743999481201,2.456660032272339,-35.7830810546875,8.75619888305664,57568.0,56741.0,59144.0,55430.0,-0.5950745626619072,0.07672199731980316,0.5,-0.4564802348613739,-0.5494516491889954,0.007128866855055094,0.03363797813653946,-0.0070970202796161175,0.023706408217549324,0.5966174602508545,-0.9260393381118774,-0.42229175567626953,4.6247687339782715,6.248306751251221,13.934104919433594,63068.0,58846.0,58172.0,60535.0,0.23263617969270486,-0.5530645603344907,0.5
2.456,TAKEOFF,intermittent,1.0,0.5993309617042542,0.004920536652207375,-7.146771531552076e-05,0.015396816655993462,-0.0037059015594422817,0.027395348995923996,0.810025155544281,-0.07389236986637115,-3.1526002883911133,25.89092445373535,-4.508213996887207,-14.217303276062012,56724.0,60971.0,50378.0,56336.0,0.361316442512968,0.47900984162099747,0.5,-0.41512882709503174,0.576597273349762,0.00316292280331254,0.012269887141883373,0.0021592522971332073,0.029521863907575607,0.0809367299079895,-0.6011252999305725,0.9110743999481201,2.456660032272339,-35.7830810546875,8.75619888305664,57568.0,56741.0,59144.0,55430.0,-0.5956951522579339,0.07174458569395209,0.5,-0.4564802348613739,-0.5494516491889954,0.007128866855055094,0.03363797813653946,-0.0070970202796161175,0.023706408217549324,0.5966174602508545,-0.9260393381118774,-0.42229175567626953,4.6247687339782715,6.248306751251221,13.934104919433594,63068.0,58846.0,58172.0,60535.0,0.2372515839977255,-0.5511004317640934,0.5
2.476,TAKEOFF,intermittent,1.0,0.5985022187232971,0.00836549699306488,0.001887838589027524,0.015325677581131458,-0.017119890078902245,0.08269241452217102,2.26617693901062,-0.15310680866241455,-3.366778612136841,42.512115478515625,-5.083986282348633,10.183920860290527,58786.0,59147.0,54185.0,51654.0,0.6,0.0,0.5,-0.4142526686191559,0.5768808722496033,0.006079060025513172,0.02459530718624592,-0.010482747107744217,0.10675322264432907,0.5165975689888,0.7747740745544434,1.2515166997909546,14.118441581726074,-46.89277648925781,11.810552597045898,58117.0,60674.0,56785.0,48969.0,-0.3000025448675481,0.51961377298239,0.5,-0.45785388350486755,-0.5487667918205261,0.009709104895591736,0.020550847053527832,0.002714637666940689,0.05241547152400017,0.5834150314331055,-0.9629244208335876,-0.12906043231487274,-17.612838745117188,0.046898018568754196,6.261000633239746,60986.0,59100.0,60096.0,61032.0,-0.29999491024331576,-0.5196181808098181,0.5
2.496,TAKEOFF,intermittent,1.0,0.5985022187232971,0.00836549699306488,0.001887838589027524,0.014789768494665623,-0.02858448587357998,0.11334159225225449,3.1599879264831543,0.33967411518096924,-2.9449479579925537,-13.464428901672363,-15.086715698242188,20.22916603088379,57081.0,55962.0,55343.0,55381.0,0.3532573244224551,0.48498377575119794,0.5,-0.4142526686191559,0.5768808722496033,0.006079060025513172,0.019872672855854034,-0.013240592554211617,0.1572362184524536,0.8329394459724426,1.7168145179748535,1.4728950262069702,38.79243087768555,-45.60737609863281,14.003827095031738,58200.0,61670.0,56002.0,45378.0,-0.5968113947723724,0.06177506835168492,0.5,-0.45785388350486755,-0.5487667918205261,0.009709104895591736,0.029599733650684357,-0.0020084099378436804,0.13408106565475464,0.3925580084323883,-0.9597639441490173,0.15047556161880493,4.9503560066223145,-5.066558837890625,12.522231101989746,61396.0,57386.0,59126.0,60645.0,0.24643232793401237,-0.5470567683056515,0.5
2.516,TAKEOFF,intermittent,1.0,0.5985022187232971,0.00836549699306488,0.001887838589027524,0.03834949806332588,-0.04241057485342026,0.14255820214748383,2.7771618366241455,0.5120754837989807,-2.606597661972046,-30.604949951171875,-25.97141456604004,21.796688079833984,56215.0,55824.0,58299.0,51945.0,0.34919059134500235,0.48792000462793855,0.5,-0.4142526686191559,0.5768808722496033,0.006079060025513172,0.011089918203651905,-0.01823231391608715,0.21045517921447754,1.6261451244354248,2.6492459774017334,1.7179118394851685,52.243892669677734,-44.63687515258789,13.550396919250488,56857.0,59028.0,56552.0,48064.0,-0.5973069696785857,0.056783659387055214,0.5,-0.45785388350486755,-0.5487667918205261,0.009709104895591736,0.04037899896502495,-0.01184926275163889,0.1873030811548233,0.47771674394607544,-0.8292944431304932,0.39003753662109375,9.855113983154297,2.884756565093994,11.338679313659668,62374.0,58433.0,57018.0,58543.0,0.2509970259394588,-0.5449775160220343,0.5
2.536,TAKEOFF,intermittent,1.0,0.5985022187232971,0.00836549699306488,0.001887838589027524,0.035970788449048996,-0.05295437201857567,0.177436962723732,2.1820483207702637,1.2007263898849487,-2.229323148727417,-30.02800178527832,-40.33808517456055,26.451576232910156,55645.0,56428.0,59172.0,49708.0,0.34509945395990194,0.4908221336457612,0.5,-0.4142526686191559,0.5768808722496033,0.006079060025513172,-0.0018229975830763578,-0.027643654495477676,0.26826012134552,2.660151481628418,3.6007158756256104,1.949044942855835,15.407669067382812,-19.41946792602539,15.901847839355469,53860.0,55536.0,59095.0,49301.0,-0.5977607998659853,0.05178828191374463,0.5,-0.45785388350486755,-0.5487667918205261,0.009709104895591736,0.039485614746809006,-0.00728737935423851,0.2413160353899002,0.7841829657554626,-0.951033890247345,0.6389184594154358,23.714120864868164,-18.107166290283203,9.91067123413086,59300.0,60314.0,58497.0,54769.0,0.2555441822104155,-0.5428601762317898,0.5
2.556,TAKEOFF,intermittent,1.0,0.5985022187232971,0.00836549699306488,0.001887838589027524,0.03130345419049263,-0.06207212805747986,0.2147931009531021,1.5338222980499268,2.1244823932647705,-1.7803008556365967,-21.379966735839844,-39.7630729675293,26.710655212402344,55734.0,55467.0,59576.0,48483.0,0.34098419818944936,0.4936899599800449,0.5,-0.42059749364852905,0.5788844227790833,0.032529059797525406,-0.05421707406640053,-0.01497954223304987,0.3348199427127838,2.819770336151123,4.310876846313477,2.27972674369812,-26.443796157836914,-8.081732749938965,11.290573120117188,53505.0,53181.0,57002.0,52422.0,-0.5981728536171889,0.04678928504977551,0.5,-0.45785388350486755,-0.5487667918205261,0.009709104895591736,0.044257793575525284,-0.0136704808101058,0.28537002205848694,1.185368299484253,-0.5280026793479919,0.7952075004577637,11.316655158996582,-16.743852615356445,4.780004024505615,59340.0,57746.0,57417.0,57165.0,0.26007347895424077,-0.5407048969120198,0.5
