timestamp_sec,flight_state,fault_type,fault_motor_health,cf1_X,cf1_Y,cf1_Z,cf1_VelX,cf1_VelY,cf1_VelZ,cf1_Roll,cf1_Pitch,cf1_Yaw,cf1_GyroX,cf1_GyroY,cf1_GyroZ,cf1_Motor1,cf1_Motor2,cf1_Motor3,cf1_Motor4,cf1_targ_x,cf1_targ_y,cf1_targ_z,cf2_X,cf2_Y,cf2_Z,cf2_VelX,cf2_VelY,cf2_VelZ,cf2_Roll,cf2_Pitch,cf2_Yaw,cf2_GyroX,cf2_GyroY,cf2_GyroZ,cf2_Motor1,cf2_Motor2,cf2_Motor3,cf2_Motor4,cf2_targ_x,cf2_targ_y,cf2_targ_z,cf3_X,cf3_Y,cf3_Z,cf3_VelX,cf3_VelY,cf3_VelZ,cf3_Roll,cf3_Pitch,cf3_Yaw,cf3_GyroX,cf3_GyroY,cf3_GyroZ,cf3_Motor1,cf3_Motor2,cf3_Motor3,cf3_Motor4,cf3_targ_x,cf3_targ_y,cf3_targ_z
0.009,TAKEOFF,abrupt,1.0,0.6005926728248596,0.0051692333072423935,0.0017610789509490132,0.006796165835112333,-0.011079455725848675,0.006668820045888424,0.4075827896595001,0.2999604344367981,-0.1195877343416214,0.11201919615268707,-0.11219041794538498,0.09351646155118942,0.0,0.0,0.0,0.0,0.6,0.0,0.5,-0.337451308965683,0.6589227318763733,0.002622003201395273,0.016579722985625267,-0.01241202000528574,-0.009769911877810955,-0.2494894564151764,-2.028111219406128,3.465242862701416,-0.05131647363305092,0.42661944031715393,0.01906397193670273,0.0,0.0,0.0,0.0,-0.3000025448675481,0.51961377298239,0.5,-0.3192722499370575,-0.540387749671936,0.007742939051240683,-0.012528748251497746,0.0013723430456593633,0.0014684232883155346,0.19232608377933502,0.5712036490440369,-2.2561440467834473,-0.030756575986742973,-0.1717941164970398,-0.041659075766801834,0.0,0.0,0.0,0.0,-0.29999491024331576,-0.5196181808098181,0.5
0.029,TAKEOFF,abrupt,1.0,0.6005926728248596,0.0051692333072423935,0.0017610789509490132,0.00017311121337115765,0.003095592837780714,0.004524551797658205,0.2915506660938263,0.3547654151916504,-0.07803080976009369,-0.34830090403556824,0.09632150083780289,-0.06313010305166245,0.0,0.0,0.0,0.0,0.6,0.0,0.5,-0.337451308965683,0.6589227318763733,0.002622003201395273,0.015012730844318867,-0.01052315067499876,-0.011858835816383362,-0.27285948395729065,-2.0163726806640625,3.5046730041503906,0.15575292706489563,0.3519614636898041,-0.18356271088123322,0.0,0.0,0.0,0.0,-0.3000025448675481,0.51961377298239,0.5,-0.3192722499370575,-0.540387749671936,0.007742939051240683,-0.012938479892909527,0.00166861352045089,0.001555675407871604,0.19343914091587067,0.5703712701797485,-2.255816698074341,-0.21825510263442993,-0.05977495759725571,-0.15791353583335876,0.0,0.0,0.0,0.0,-0.29999491024331576,-0.5196181808098181,0.5
0.049,TAKEOFF,abrupt,1.0,0.6005926728248596,0.0051692333072423935,0.0017610789509490132,3.21676634484902e-05,0.0031088097020983696,0.004670954309403896,0.2928714156150818,0.35016605257987976,-0.09117289632558823,0.1072620078921318,0.08979171514511108,0.006196712143719196,0.0,0.0,0.0,0.0,0.6,0.0,0.5,-0.337451308965683,0.6589227318763733,0.002622003201395273,0.012033520266413689,-0.006794004701077938,-0.005232074297964573,-0.2731402516365051,-2.0176072120666504,3.504838705062866,-0.028385762125253677,-0.06441882997751236,-0.18636025488376617,0.0,0.0,0.0,0.0,-0.3000025448675481,0.51961377298239,0.5,-0.3192722499370575,-0.540387749671936,0.007742939051240683,-0.01272945199161768,0.0008107606554403901,-0.000436576985521242,0.19963447749614716,0.5656851530075073,-2.3103325366973877,-0.12756949663162231,0.17048430442810059,-0.13802170753479004,0.0,0.0,0.0,0.0,-0.29999491024331576,-0.5196181808098181,0.5
0.069,TAKEOFF,abrupt,1.0,0.6005926728248596,0.0051692333072423935,0.0017610789509490132,0.00017355206364300102,0.002473717788234353,0.003483392531052232,0.3001818060874939,0.34755489230155945,-0.1067611500620842,-0.1498316377401352,0.21559573709964752,0.1123107373714447,37110.0,37645.0,37220.0,37095.0,0.6,0.0,0.5,-0.337451308965683,0.6589227318763733,0.002622003201395273,0.012311163358390331,-0.006665193475782871,-0.005040085408836603,-0.33245331048965454,-1.9863920211791992,3.5728354454040527,-0.16968676447868347,0.07154472172260284,0.12057176232337952,41685.0,36443.0,39924.0,38865.0,-0.3000025448675481,0.51961377298239,0.5,-0.324573814868927,-0.5372873544692993,0.006320522632449865,-0.013288802467286587,0.0008165386971086264,-0.0005890366155654192,0.19963447749614716,0.5656851530075073,-2.3103325366973877,-0.12756949663162231,0.17048430442810059,-0.13802170753479004,0.0,0.0,0.0,0.0,-0.29999491024331576,-0.5196181808098181,0.5
0.089,TAKEOFF,abrupt,1.0,0.6005926728248596,0.0051692333072423935,0.0017610789509490132,0.0001589347521075979,0.0015717113856226206,0.0025571519508957863,0.3059063255786896,0.3469429016113281,-0.1147041767835617,1.0586299896240234,0.1513683944940567,0.4252396523952484,37963.0,38081.0,37825.0,37864.0,0.6,0.0,0.5,-0.3406984806060791,0.6622213125228882,0.0031799727585166693,0.013606994412839413,0.0018019897397607565,0.000287503789877519,-0.3306887149810791,-1.9842865467071533,3.568589925765991,-0.041758567094802856,0.7509283423423767,-0.9868424534797668,41826.0,36769.0,40383.0,39156.0,-0.3000025448675481,0.51961377298239,0.5,-0.324573814868927,-0.5372873544692993,0.006320522632449865,0.009990138001739979,-0.012097279541194439,0.004738199524581432,0.28455400466918945,0.3848820924758911,-2.2269105911254883,0.14377272129058838,-0.6992056965827942,1.5385048389434814,38680.0,41620.0,39482.0,40068.0,-0.29999491024331576,-0.5196181808098181,0.5
0.11,TAKEOFF,abrupt,1.0,0.6003153920173645,0.005937098991125822,0.002174053806811571,-0.0006574047729372978,0.0007772124954499304,0.0024021645076572895,0.26003700494766235,0.3630119562149048,-0.05924530327320099,-2.5249545574188232,-1.1744804382324219,-0.5421314835548401,37299.0,38733.0,39164.0,38363.0,0.6,0.0,0.5,-0.3406984806060791,0.6622213125228882,0.0031799727585166693,0.019749727100133896,0.002341289771720767,-0.0010344722541049123,-0.35739582777023315,-1.961933970451355,3.6173782348632812,0.16071148216724396,-0.6833450794219971,-0.09825201332569122,42992.0,37475.0,41454.0,40141.0,-0.3000025448675481,0.51961377298239,0.5,-0.324573814868927,-0.5372873544692993,0.006320522632449865,0.00864122249186039,-0.013020353391766548,0.004139058757573366,0.28879186511039734,0.3900444805622101,-2.2335851192474365,1.5554200410842896,-0.18652473390102386,-0.8258828520774841,39673.0,42727.0,40658.0,41713.0,-0.29999491024331576,-0.5196181808098181,0.5
0.129,TAKEOFF,abrupt,1.0,0.6003153920173645,0.005937098991125822,0.002174053806811571,-0.0033956305123865604,0.0061262003146111965,0.005892794579267502,0.2616111934185028,0.36025866866111755,-0.0591992549598217,0.22624246776103973,-2.5173563957214355,0.20800048112869263,40570.0,40739.0,36941.0,37080.0,0.6,0.0,0.5,-0.3406984806060791,0.6622213125228882,0.0031799727585166693,0.024157678708434105,0.008114337921142578,0.0036067680921405554,-0.38214194774627686,-1.9465621709823608,3.687316656112671,-0.8872066140174866,-0.3517175018787384,-0.3971259891986847,44163.0,37394.0,41824.0,41629.0,-0.3000025448675481,0.51961377298239,0.5,-0.324573814868927,-0.5372873544692993,0.006320522632449865,0.01740925759077072,-0.017735907807946205,-0.0008122822619043291,0.08066124469041824,0.5252202749252319,-2.180624485015869,0.04119786620140076,2.2990903854370117,0.27441903948783875,42352.0,43327.0,39331.0,43715.0,-0.29999491024331576,-0.5196181808098181,0.5
0.149,TAKEOFF,abrupt,1.0,0.6003153920173645,0.005937098991125822,0.002174053806811571,-0.003805470420047641,0.002713632071390748,0.002310172189027071,0.34033286571502686,0.21379603445529938,-0.21743014454841614,-1.7531596422195435,-1.5147784948349,-8.959525108337402,38263.0,41180.0,39517.0,38863.0,0.6,0.0,0.5,-0.3406984806060791,0.6622213125228882,0.0031799727585166693,0.02924369089305401,0.012398987077176571,0.007052243687212467,-0.3904551565647125,-1.939584732055664,3.6891543865203857,1.2639399766921997,-1.5902414321899414,-0.781285285949707,44311.0,38084.0,42925.0,42139.0,-0.3000025448675481,0.51961377298239,0.5,-0.3227156102657318,-0.5369013547897339,0.005785724148154259,-0.010017157532274723,0.014018313959240913,-0.008268465287983418,0.08069451153278351,0.5139097571372986,-2.181583881378174,-1.2313154935836792,1.9259905815124512,-0.546127200126648,41395.0,44504.0,42875.0,43945.0,-0.29999491024331576,-0.5196181808098181,0.5
0.17,TAKEOFF,abrupt,1.0,0.6003153920173645,0.005937098991125822,0.002174053806811571,0.01230172161012888,-0.005570271052420139,-0.0004823121998924762,0.3462507426738739,0.21713751554489136,-0.4856882691383362,1.9150748252868652,0.5498422384262085,-9.776339530944824,38742.0,41463.0,39285.0,41182.0,0.6,0.0,0.5,-0.3406984806060791,0.6622213125228882,0.0031799727585166693,0.035798393189907074,0.014172807335853577,0.007461972534656525,-0.38857346773147583,-1.9437400102615356,3.6871325969696045,0.6210806369781494,1.001402735710144,1.939440369606018,44933.0,39088.0,44258.0,43056.0,-0.3000025448675481,0.51961377298239,0.5,-0.3227156102657318,-0.5369013547897339,0.005785724148154259,0.0024765690322965384,0.006627858616411686,-0.005945255048573017,0.11651221662759781,0.3880535364151001,-2.1168806552886963,0.22782902419567108,0.8711506724357605,2.585383415222168,42878.0,42592.0,43120.0,46597.0,-0.29999491024331576,-0.5196181808098181,0.5
0.189,TAKEOFF,abrupt,1.0,0.6003153920173645,0.005937098991125822,0.002174053806811571,0.011544729582965374,-0.006722187157720327,-0.002385674975812435,0.25069159269332886,0.28685542941093445,-0.4567013084888458,-10.893937110900879,-12.428913116455078,2.122129201889038,38790.0,40190.0,43083.0,40095.0,0.6,0.0,0.5,-0.3392283320426941,0.6637669205665588,0.004307603929191828,0.042348966002464294,0.015937285497784615,0.007783256005495787,-0.4181126356124878,-1.856889009475708,3.7542550563812256,4.530028343200684,-2.8099069595336914,2.9160237312316895,44933.0,39088.0,44258.0,43056.0,-0.3000025448675481,0.51961377298239,0.5,-0.3227156102657318,-0.5369013547897339,0.005785724148154259,-0.012462211772799492,0.021081967279314995,-0.011795210652053356,-0.029542241245508194,0.46393266320228577,-2.135281801223755,4.830392360687256,-4.299927234649658,2.9582643508911133,42714.0,47991.0,44671.0,42214.0,-0.29999491024331576,-0.5196181808098181,0.5
0.209,TAKEOFF,abrupt,1.0,0.6038392186164856,0.008309737779200077,0.001146762166172266,0.000641902384813875,0.008033353835344315,-0.002761006122455001,0.06882058829069138,0.445081889629364,-0.4399723708629608,12.783769607543945,12.770931243896484,-21.196792602539062,41051.0,43160.0,36366.0,42522.0,0.6,0.0,0.5,-0.3392283320426941,0.6637669205665588,0.004307603929191828,0.042185861617326736,0.021057574078440666,0.008021111600100994,-0.3969839811325073,-1.8341084718704224,3.8794968128204346,1.9341057538986206,0.035182710736989975,1.2705711126327515,45399.0,40413.0,44909.0,43664.0,-0.3000025448675481,0.51961377298239,0.5,-0.3227156102657318,-0.5369013547897339,0.005785724148154259,-0.02406230941414833,0.018230507150292397,-0.008498539216816425,0.04642525315284729,0.5943391919136047,-2.2002365589141846,-10.389692306518555,5.691850662231445,-5.427563190460205,41207.0,43030.0,45212.0,49321.0,-0.29999491024331576,-0.5196181808098181,0.5
0.229,TAKEOFF,abrupt,1.0,0.6038392186164856,0.008309737779200077,0.001146762166172266,-0.005386547651141882,0.014024365693330765,-0.005404358729720116,0.2375156581401825,0.25957295298576355,-0.8419079184532166,2.1807823181152344,0.5453008413314819,-5.7428741455078125,41524.0,42133.0,39314.0,41134.0,0.6,0.0,0.5,-0.3392283320426941,0.6637669205665588,0.004307603929191828,0.04840338975191116,0.022854385897517204,0.008318483829498291,-0.4118679463863373,-1.775172472000122,3.9223716259002686,1.6523183584213257,-1.1110440492630005,-0.3194224238395691,45399.0,40413.0,44909.0,43664.0,-0.3000025448675481,0.51961377298239,0.5,-0.3227156102657318,-0.5369013547897339,0.005785724148154259,-0.026003481820225716,0.016896922141313553,-0.009165022522211075,-0.010329712182283401,0.535302996635437,-2.281608819961548,0.4795772433280945,3.7362704277038574,22.3493709564209,41807.0,42928.0,48902.0,47051.0,-0.29999491024331576,-0.5196181808098181,0.5
0.249,TAKEOFF,abrupt,1.0,0.6038392186164856,0.008309737779200077,0.001146762166172266,-0.006453285459429026,0.01337410043925047,-0.003402776550501585,0.22891615331172943,0.3057132959365845,-0.9602852463722229,4.510967254638672,0.3504962921142578,-10.484326362609863,41176.0,40808.0,39539.0,43523.0,0.6,0.0,0.5,-0.3392283320426941,0.6637669205665588,0.004307603929191828,0.03813297301530838,0.010310964658856392,0.007691885344684124,-0.3041738271713257,-1.6728788614273071,3.942495107650757,1.72162663936615,0.4529288411140442,0.5490829944610596,46608.0,39012.0,44085.0,45720.0,-0.3000025448675481,0.51961377298239,0.5,-0.32611221075057983,-0.5359474420547485,0.004799894988536835,-0.027519797906279564,0.017450721934437752,-0.006259530317038298,-0.11183997243642807,0.4145297706127167,-2.0332133769989014,-2.6726980209350586,0.7865389585494995,-2.587416410446167,44781.0,48416.0,44858.0,44368.0,-0.29999491024331576,-0.5196181808098181,0.5
0.269,TAKEOFF,abrupt,1.0,0.6038392186164856,0.008309737779200077,0.001146762166172266,-0.007461032830178738,0.012566892430186272,-0.002947137923911214,0.2722146511077881,0.2912052273750305,-1.16947603225708,-1.8300358057022095,-4.683098316192627,-7.815507411956787,36660.0,42517.0,43294.0,43207.0,0.6,0.0,0.5,-0.3392283320426941,0.6637669205665588,0.004307603929191828,0.04154536500573158,0.013827436603605747,0.008532058447599411,-0.28729262948036194,-1.6553577184677124,3.896684169769287,-1.9097155332565308,0.1238006129860878,-10.001940727233887,47350.0,40998.0,44474.0,43902.0,-0.3000025448675481,0.51961377298239,0.5,-0.32611221075057983,-0.5359474420547485,0.004799894988536835,-0.028052320703864098,0.01700485497713089,-0.009793056175112724,-0.14623403549194336,0.37678062915802,-2.053553819656372,7.817634582519531,-10.071022033691406,3.8645992279052734,43610.0,48207.0,47355.0,44903.0,-0.29999491024331576,-0.5196181808098181,0.5
0.289,TAKEOFF,abrupt,1.0,0.6038392186164856,0.008309737779200077,0.001146762166172266,-0.025996893644332886,-0.0015953610418364406,-0.010258574038743973,0.3634549379348755,0.4723356366157532,-1.3836270570755005,8.228233337402344,10.456488609313965,-10.436890602111816,42193.0,43059.0,38956.0,43262.0,0.6,0.0,0.5,-0.33969488739967346,0.6639288663864136,0.004976384807378054,0.045121949166059494,0.016497796401381493,0.008651004172861576,-0.28883811831474304,-1.68971586227417,3.8310511112213135,0.5743765830993652,-0.8775212168693542,-1.8234864473342896,47502.0,39988.0,44267.0,45809.0,-0.3000025448675481,0.51961377298239,0.5,-0.32611221075057983,-0.5359474420547485,0.004799894988536835,-0.015192406252026558,0.009654945693910122,0.006143683567643166,0.052931055426597595,0.43745842576026917,-1.9258131980895996,-6.2515645027160645,4.765003204345703,5.26845121383667,44601.0,44556.0,46431.0,48669.0,-0.29999491024331576,-0.5196181808098181,0.5
0.309,TAKEOFF,abrupt,1.0,0.5997223854064941,0.006627008784562349,0.0001792203402146697,-0.02702672779560089,-0.0034521676134318113,-0.019660403952002525,0.4516829550266266,0.3691018521785736,-1.5887876749038696,-0.8544337749481201,-2.0496466159820557,-4.625946044921875,41686.0,43802.0,41049.0,42810.0,0.6,0.0,0.5,-0.33969488739967346,0.6639288663864136,0.004976384807378054,0.04651649668812752,0.008897678926587105,0.0078741991892457,-0.21676819026470184,-1.652661681175232,3.7807767391204834,0.9764342904090881,-1.2863761186599731,-4.053125858306885,47580.0,40068.0,44212.0,46624.0,-0.3000025448675481,0.51961377298239,0.5,-0.32611221075057983,-0.5359474420547485,0.004799894988536835,-0.0105467913672328,0.0066539216786623,0.01825159788131714,-0.011705872602760792,0.2909594774246216,-1.8029271364212036,-8.327256202697754,6.074373245239258,14.649113655090332,45342.0,45838.0,47393.0,46178.0,-0.29999491024331576,-0.5196181808098181,0.5
0.329,TAKEOFF,abrupt,1.0,0.5997223854064941,0.006627008784562349,0.0001792203402146697,-0.027145985513925552,-0.0039001686964184046,-0.019211556762456894,0.5075244903564453,0.27158570289611816,-1.7779463529586792,-0.2594965994358063,-1.817664384841919,3.469599723815918,41597.0,43701.0,42100.0,43204.0,0.6,0.0,0.5,-0.33969488739967346,0.6639288663864136,0.004976384807378054,0.06942465156316757,-0.003267477499321103,7.89312762208283e-05,-0.11546912044286728,-1.7556278705596924,3.6055047512054443,2.6077420711517334,3.3449814319610596,-5.025054931640625,48361.0,40926.0,45084.0,47082.0,-0.3000025448675481,0.51961377298239,0.5,-0.32611221075057983,-0.5359474420547485,0.004799894988536835,-0.007951020263135433,0.005431419238448143,0.023271221667528152,-0.13412830233573914,0.12025908380746841,-1.5299841165542603,10.480501174926758,-9.706341743469238,16.926517486572266,48676.0,46029.0,49502.0,40126.0,-0.29999491024331576,-0.5196181808098181,0.5
0.349,TAKEOFF,abrupt,1.0,0.5997223854064941,0.006627008784562349,0.0001792203402146697,-0.0162236075848341,-0.018325503915548325,-0.007752911187708378,0.5339215397834778,0.28022393584251404,-1.7990456819534302,-1.8749864101409912,-0.6282670497894287,16.351816177368164,43611.0,43654.0,42538.0,41462.0,0.6,0.0,0.5,-0.33969488739967346,0.6639288663864136,0.004976384807378054,0.07906751334667206,-0.0031551741994917393,-0.0048330072313547134,-0.11087403446435928,-1.7971044778823853,3.3383383750915527,-2.5983521938323975,1.9739750623703003,-7.753770351409912,49314.0,42710.0,43936.0,46715.0,-0.3000025448675481,0.51961377298239,0.5,-0.31805363297462463,-0.541418194770813,0.010038375854492188,-0.005330570507794619,0.005029636900871992,0.02475074678659439,0.12297125160694122,0.3906305730342865,-1.0427665710449219,10.785661697387695,-9.861357688903809,12.052729606628418,47043.0,49073.0,46538.0,43216.0,-0.29999491024331576,-0.5196181808098181,0.5
0.369,TAKEOFF,abrupt,1.0,0.5997223854064941,0.006627008784562349,0.0001792203402146697,-0.013961263932287693,-0.01977870985865593,-0.015551023185253143,0.5017384886741638,0.2650718092918396,-1.5561376810073853,0.9601223468780518,2.185149669647217,9.723389625549316,44298.0,44658.0,42310.0,41144.0,0.6,0.0,0.5,-0.33969488739967346,0.6639288663864136,0.004976384807378054,0.0730670914053917,-0.009086454287171364,-0.010238255374133587,-0.09924552589654922,-1.7112053632736206,3.2190003395080566,2.2462799549102783,-4.38366174697876,-3.984682321548462,48154.0,41469.0,46704.0,48053.0,-0.3000025448675481,0.51961377298239,0.5,-0.31805363297462463,-0.541418194770813,0.010038375854492188,-0.007257699500769377,0.00568110216408968,0.027439715340733528,0.18892286717891693,0.4862792491912842,-0.963374674320221,5.137444972991943,-5.527521133422852,6.757200241088867,46134.0,48888.0,47546.0,44381.0,-0.29999491024331576,-0.5196181808098181,0.5
0.389,TAKEOFF,abrupt,1.0,0.5997223854064941,0.006627008784562349,0.0001792203402146697,-0.012566301971673965,-0.019244542345404625,-0.022491995245218277,0.43891575932502747,0.2847992181777954,-1.1973133087158203,0.6872224807739258,0.5479515790939331,7.811635971069336,44310.0,44620.0,42835.0,42334.0,0.6,0.0,0.5,-0.33674517273902893,0.6612930297851562,0.002519140485674143,0.07171012461185455,-0.006450762040913105,-0.007752027828246355,-0.12043378502130508,-1.647720217704773,3.188891649246216,2.3262460231781006,-1.5468477010726929,2.155364990234375,48154.0,41469.0,46704.0,48053.0,-0.3000025448675481,0.51961377298239,0.5,-0.31805363297462463,-0.541418194770813,0.010038375854492188,-0.002553327940404415,0.00294537958689034,0.020987898111343384,0.2219076156616211,0.43147939443588257,-0.6496930122375488,-4.757529258728027,4.138968467712402,8.138900756835938,46225.0,46366.0,48148.0,47246.0,-0.29999491024331576,-0.5196181808098181,0.5
0.409,TAKEOFF,abrupt,1.0,0.604255735874176,0.007119218818843365,-0.0006870118086226285,-0.019820962101221085,-0.00704231159761548,-0.01362443808466196,0.45950213074684143,0.2753562033176422,-1.1305913925170898,-1.5398937463760376,-3.307868719100952,9.672107696533203,42710.0,44164.0,44690.0,43159.0,0.6,0.0,0.5,-0.33674517273902893,0.6612930297851562,0.002519140485674143,0.0720142349600792,-0.008350186049938202,-0.0031651209574192762,-0.21247535943984985,-1.566893458366394,3.2190237045288086,-3.7168772220611572,2.0141043663024902,4.222565650939941,50667.0,44894.0,45911.0,44839.0,-0.3000025448675481,0.51961377298239,0.5,-0.31805363297462463,-0.541418194770813,0.010038375854492188,-0.015753785148262978,0.01925671473145485,0.0018393798964098096,0.03650738671422005,0.48110029101371765,-0.5372488498687744,-1.2474337816238403,3.6722846031188965,14.794754981994629,48404.0,46908.0,47849.0,46507.0,-0.29999491024331576,-0.5196181808098181,0.5
0.429,TAKEOFF,abrupt,1.0,0.604255735874176,0.007119218818843365,-0.0006870118086226285,-0.03121735155582428,-0.01088605634868145,-0.007585280574858189,0.47176674008369446,0.3298880457878113,-1.0063142776489258,-0.7313586473464966,0.8635010123252869,15.219626426696777,45033.0,44494.0,43662.0,42785.0,0.6,0.0,0.5,-0.33674517273902893,0.6612930297851562,0.002519140485674143,0.06900917738676071,-0.001363507006317377,-0.0007893517031334341,-0.1779283732175827,-1.4468580484390259,3.394169569015503,-4.590221881866455,-5.161171913146973,7.980687141418457,50667.0,44894.0,45911.0,44839.0,-0.3000025448675481,0.51961377298239,0.5,-0.31805363297462463,-0.541418194770813,0.010038375854492188,-0.01750357821583748,0.019205760210752487,0.004522720817476511,-0.06160817667841911,0.37177354097366333,-0.24865154922008514,-8.050966262817383,8.349752426147461,10.053054809570312,46955.0,46811.0,49948.0,48123.0,-0.29999491024331576,-0.5196181808098181,0.5
0.449,TAKEOFF,abrupt,1.0,0.604255735874176,0.007119218818843365,-0.0006870118086226285,-0.02803768962621689,-0.014533162117004395,-0.0016651416663080454,0.44127026200294495,0.32325080037117004,-0.702481210231781,-0.304157555103302,-2.6156346797943115,16.883350372314453,45380.0,43265.0,44011.0,43632.0,0.6,0.0,0.5,-0.33674517273902893,0.6612930297851562,0.002519140485674143,0.06888128072023392,0.003717188024893403,0.009056970477104187,-0.2357257753610611,-1.3749189376831055,3.4725165367126465,3.682788848876953,-19.85572052001953,9.878981590270996,49017.0,41834.0,48434.0,47560.0,-0.3000025448675481,0.51961377298239,0.5,-0.3201098144054413,-0.5392295718193054,0.008198345080018044,-0.006956116296350956,0.009301161393523216,-0.0028929030522704124,-0.12267456948757172,0.15239809453487396,-0.01692892611026764,8.28365421295166,-6.191757678985596,13.858602523803711,49135.0,49752.0,49346.0,45042.0,-0.29999491024331576,-0.5196181808098181,0.5
0.469,TAKEOFF,abrupt,1.0,0.604255735874176,0.007119218818843365,-0.0006870118086226285,-0.02559618465602398,-0.01095940824598074,-0.008126076310873032,0.40095117688179016,0.286955326795578,-0.34914231300354004,2.5747101306915283,5.035606384277344,19.490966796875,46192.0,44282.0,43831.0,44488.0,0.6,0.0,0.5,-0.33674517273902893,0.6612930297851562,0.002519140485674143,0.08649652451276779,-0.0035092842299491167,0.0051638465374708176,-0.1593560129404068,-1.1457405090332031,3.614137649536133,-1.0422823429107666,-16.848047256469727,12.046371459960938,50263.0,40013.0,48113.0,48794.0,-0.3000025448675481,0.51961377298239,0.5,-0.3201098144054413,-0.5392295718193054,0.008198345080018044,-0.017777495086193085,0.018479637801647186,-0.0034838744904845953,-0.017587941139936447,0.3708459734916687,0.23917651176452637,10.613968849182129,-9.590909004211426,12.13008975982666,47911.0,49396.0,51100.0,46272.0,-0.29999491024331576,-0.5196181808098181,0.5
0.489,TAKEOFF,abrupt,1.0,0.604255735874176,0.007119218818843365,-0.0006870118086226285,-0.02767047844827175,-0.012235751375555992,-0.007276385556906462,0.45656731724739075,0.3026233911514282,0.02835853397846222,-0.14750003814697266,-0.6170612573623657,25.658296585083008,45762.0,43512.0,45659.0,43841.0,0.6,0.0,0.5,-0.3325940668582916,0.6618302464485168,0.0028048870153725147,0.09020612388849258,-0.002537428867071867,0.014706018380820751,-0.231832355260849,-0.7257477641105652,3.856116771697998,-5.201322555541992,-34.86079788208008,10.757837295532227,49970.0,44933.0,49857.0,45287.0,-0.3000025448675481,0.51961377298239,0.5,-0.3201098144054413,-0.5392295718193054,0.008198345080018044,-0.01862594671547413,0.013947146944701672,-0.013129576109349728,0.22838707268238068,0.5861265063285828,0.4850904047489166,-0.8709163665771484,-2.1164205074310303,19.95585823059082,50050.0,46861.0,51107.0,48567.0,-0.29999491024331576,-0.5196181808098181,0.5
0.509,TAKEOFF,abrupt,1.0,0.6051440238952637,0.007398777175694704,-0.0012271659215912223,-0.021475667133927345,-0.0157624538987875,-0.011263377964496613,0.41306424140930176,0.280910462141037,0.4921082854270935,9.068181037902832,9.930785179138184,19.469905853271484,47593.0,46242.0,44026.0,41986.0,0.6,0.0,0.5,-0.3325940668582916,0.6618302464485168,0.0028048870153725147,0.09386689960956573,-0.002250178949907422,0.021335428580641747,-0.34253448247909546,0.15234237909317017,4.093379974365234,8.458087921142578,-46.93583679199219,14.080302238464355,49970.0,44933.0,49857.0,45287.0,-0.3000025448675481,0.51961377298239,0.5,-0.3201098144054413,-0.5392295718193054,0.008198345080018044,-0.020727569237351418,0.013118148781359196,-0.009544217959046364,0.15091197192668915,0.5540651679039001,0.8854959011077881,-5.561645030975342,10.574451446533203,18.14010238647461,50229.0,47669.0,51502.0,48321.0,-0.29999491024331576,-0.5196181808098181,0.5
0.529,TAKEOFF,abrupt,1.0,0.6051440238952637,0.007398777175694704,-0.0012271659215912223,-0.021838733926415443,-0.019091889262199402,-0.009446606040000916,0.47824588418006897,0.24970294535160065,0.9377098083496094,0.2790801525115967,-2.1454339027404785,19.566028594970703,46988.0,45461.0,46848.0,42751.0,0.6,0.0,0.5,-0.3325940668582916,0.6618302464485168,0.0028048870153725147,0.06619682163000107,0.007386975921690464,0.03208538517355919,-0.20378635823726654,1.164202332496643,4.379350662231445,-2.5079636573791504,-59.84357833862305,14.400278091430664,46731.0,48556.0,53231.0,41001.0,-0.3000025448675481,0.51961377298239,0.5,-0.3201098144054413,-0.5392295718193054,0.008198345080018044,-0.018963264301419258,0.012674148194491863,-0.00866266805678606,-0.008900768123567104,0.35563790798187256,1.2373206615447998,-6.04916524887085,-0.18430277705192566,13.589676856994629,50468.0,49391.0,52551.0,46249.0,-0.29999491024331576,-0.5196181808098181,0.5
0.549,TAKEOFF,abrupt,1.0,0.6051440238952637,0.007398777175694704,-0.0012271659215912223,-0.023477336391806602,-0.01297715213149786,-0.0067438287660479546,0.4588709771633148,0.27991577982902527,1.3467994928359985,-2.481985330581665,-4.3768181800842285,21.744400024414062,46227.0,46015.0,47806.0,41851.0,0.6,0.0,0.5,-0.3325940668582916,0.6618302464485168,0.0028048870153725147,0.06559426337480545,0.003493014257401228,0.043504565954208374,-0.3405764400959015,2.5418105125427246,4.6453328132629395,-16.252460479736328,-58.0365104675293,12.245786666870117,45286.0,47296.0,54649.0,42796.0,-0.3000025448675481,0.51961377298239,0.5,-0.3197444677352905,-0.538421094417572,0.005939075723290443,-0.00036014069337397814,0.004473778884857893,-0.010185091756284237,0.03720821812748909,0.25355905294418335,1.5898133516311646,16.63763999938965,-10.644856452941895,22.58222770690918,52021.0,50676.0,51951.0,45235.0,-0.29999491024331576,-0.5196181808098181,0.5
0.569,TAKEOFF,abrupt,1.0,0.6051440238952637,0.007398777175694704,-0.0012271659215912223,-0.033478185534477234,-0.016036778688430786,-0.0010210515465587378,0.3855206072330475,0.40024107694625854,1.7656656503677368,6.389892578125,1.4458882808685303,21.882312774658203,48100.0,46339.0,46784.0,41337.0,0.6,0.0,0.5,-0.3325940668582916,0.6618302464485168,0.0028048870153725147,0.031573858112096786,0.0031369575299322605,0.05406207591295242,-0.6912475228309631,3.8272805213928223,4.849730968475342,-13.16930103302002,-53.38105010986328,5.607666015625,44887.0,46050.0,55183.0,44791.0,-0.3000025448675481,0.51961377298239,0.5,-0.3197444677352905,-0.538421094417572,0.005939075723290443,-0.0014122851425781846,0.004067597910761833,-0.009358218871057034,0.2641616463661194,0.46006640791893005,2.0089786052703857,3.7108559608459473,0.367910772562027,17.18014144897461,52021.0,50676.0,51951.0,45235.0,-0.29999491024331576,-0.5196181808098181,0.5
0.589,TAKEOFF,abrupt,1.0,0.6051440238952637,0.007398777175694704,-0.0012271659215912223,-0.03479491174221039,-0.01748599112033844,-0.0006592253921553493,0.4740053415298462,0.3210272192955017,2.1936450004577637,-3.8032243251800537,-5.198346138000488,16.565765380859375,45277.0,45458.0,49811.0,43159.0,0.6,0.0,0.5,-0.33265042304992676,0.6612771153450012,0.006585150491446257,0.016011018306016922,0.0035099920351058245,0.060068923979997635,-0.9968321323394775,4.894787788391113,4.933073043823242,-11.059176445007324,-26.11591911315918,9.711252212524414,46263.0,47257.0,54342.0,44266.0,-0.3000025448675481,0.51961377298239,0.5,-0.3197444677352905,-0.538421094417572,0.005939075723290443,0.018763665109872818,-0.011806861497461796,-0.008392320945858955,0.5436606407165527,0.2789131999015808,2.4709315299987793,12.711066246032715,-5.692395210266113,17.945003509521484,53298.0,49913.0,53010.0,46231.0,-0.29999491024331576,-0.5196181808098181,0.5
0.609,TAKEOFF,abrupt,1.0,0.5965318083763123,0.010035011917352676,0.0012215347960591316,-0.0359208807349205,-0.019014235585927963,-0.003048754995688796,0.31339529156684875,0.3670315742492676,2.6016621589660645,-3.0251567363739014,-3.883533000946045,19.190702438354492,47726.0,46419.0,48940.0,42786.0,0.6,0.0,0.5,-0.33265042304992676,0.6612771153450012,0.006585150491446257,-0.003101612674072385,0.005655253306031227,0.07107725739479065,-1.1658754348754883,5.419802188873291,5.08080530166626,16.131134033203125,3.0618481636047363,12.968905448913574,48599.0,47447.0,53253.0,43978.0,-0.3000025448675481,0.51961377298239,0.5,-0.3197444677352905,-0.538421094417572,0.005939075723290443,0.029002048075199127,-0.02259634993970394,0.0012929323129355907,0.7705218195915222,0.29798656702041626,2.7781641483306885,9.308916091918945,7.1738739013671875,9.214444160461426,53300.0,50368.0,51526.0,48547.0,-0.29999491024331576,-0.5196181808098181,0.5
0.629,TAKEOFF,abrupt,1.0,0.5965318083763123,0.010035011917352676,0.0012215347960591316,-0.04253752529621124,-0.005136449821293354,0.008786603808403015,0.22581113874912262,0.44997987151145935,2.9836535453796387,16.250741958618164,-2.424459934234619,15.341691970825195,49336.0,47515.0,47121.0,41159.0,0.6,0.0,0.5,-0.33265042304992676,0.6612771153450012,0.006585150491446257,-0.024671003222465515,0.007647046819329262,0.08699745684862137,-0.9271149635314941,5.341294765472412,5.3062567710876465,14.501569747924805,19.59986686706543,12.548351287841797,51266.0,46343.0,51588.0,45122.0,-0.3000025448675481,0.51961377298239,0.5,-0.3197444677352905,-0.538421094417572,0.005939075723290443,0.028242090716958046,-0.025552693754434586,0.0069544692523777485,1.0120213031768799,0.14341342449188232,2.9543590545654297,17.771806716918945,19.38555908203125,6.562748908996582,56311.0,49795.0,48190.0,49827.0,-0.29999491024331576,-0.5196181808098181,0.5
0.649,TAKEOFF,abrupt,1.0,0.5965318083763123,0.010035011917352676,0.0012215347960591316,-0.04389183223247528,-0.006079445127397776,0.008649234659969807,0.4064469039440155,0.09621384739875793,3.3104991912841797,-6.021588325500488,12.966304779052734,10.602971076965332,47903.0,45762.0,49263.0,44771.0,0.6,0.0,0.5,-0.33265042304992676,0.6612771153450012,0.006585150491446257,-0.057965170592069626,0.02193167619407177,0.10742488503456116,-0.744682788848877,5.053528785705566,5.581417560577393,9.013631820678711,14.810086250305176,13.223217010498047,49666.0,47597.0,53376.0,43112.0,-0.3000025448675481,0.51961377298239,0.5,-0.3133518099784851,-0.5425822138786316,0.006112474948167801,0.02827371656894684,-0.02948223240673542,0.013776482082903385,1.3343318700790405,-0.22452813386917114,3.078958511352539,9.101422309875488,18.77457046508789,4.03566837310791,55466.0,49245.0,49803.0,50926.0,-0.29999491024331576,-0.5196181808098181,0.5
0.669,TAKEOFF,abrupt,1.0,0.5965318083763123,0.010035011917352676,0.0012215347960591316,-0.0002952232607640326,0.006930870935320854,0.006196118425577879,0.36288192868232727,-0.20200787484645844,3.5130560398101807,9.931038856506348,11.244224548339844,3.3952298164367676,50140.0,46431.0,46320.0,45288.0,0.6,0.0,0.5,-0.33265042304992676,0.6612771153450012,0.006585150491446257,-0.0756705179810524,0.02262277901172638,0.11309560388326645,-0.5702449679374695,4.801333427429199,5.839137554168701,17.324609756469727,10.400373458862305,16.183124542236328,51245.0,46212.0,52805.0,44311.0,-0.3000025448675481,0.51961377298239,0.5,-0.3133518099784851,-0.5425822138786316,0.006112474948167801,0.016077524051070213,-0.032589349895715714,0.0314977653324604,1.538088321685791,-0.5714536309242249,3.115654230117798,16.727956771850586,25.61688995361328,3.4236276149749756,54873.0,50931.0,50588.0,49350.0,-0.29999491024331576,-0.5196181808098181,0.5
0.689,TAKEOFF,abrupt,1.0,0.5965318083763123,0.010035011917352676,0.0012215347960591316,0.0004629175236914307,0.005482822190970182,0.011095135472714901,0.4298095107078552,-0.37396442890167236,3.626520872116089,7.111527442932129,-1.1588839292526245,1.0611156225204468,48579.0,47720.0,48405.0,44568.0,0.6,0.0,0.5,-0.33795347809791565,0.6653773188591003,0.016496479511260986,-0.09048168361186981,0.02536139078438282,0.12184955924749374,-0.2967342138290405,4.552624225616455,6.138777732849121,10.960240364074707,24.05228042602539,16.96411895751953,51225.0,45844.0,53259.0,44798.0,-0.3000025448675481,0.51961377298239,0.5,-0.3133518099784851,-0.5425822138786316,0.006112474948167801,0.016102764755487442,-0.03512054309248924,0.031505037099123,1.7691713571548462,-0.9860284924507141,3.1618239879608154,-9.02524185180664,13.70298957824707,7.464308738708496,55137.0,47746.0,51308.0,52560.0,-0.29999491024331576,-0.5196181808098181,0.5
0.709,TAKEOFF,abrupt,1.0,0.5994839668273926,0.013834579847753048,0.0012737882789224386,-0.0035085577983409166,0.014063393697142601,0.015531419776380062,0.5868760943412781,-0.39507612586021423,3.6591873168945312,23.04672622680664,4.315953731536865,-0.6221550107002258,50918.0,47813.0,46416.0,44832.0,0.6,0.0,0.5,-0.33795347809791565,0.6653773188591003,0.016496479511260986,-0.08971680700778961,0.014141591265797615,0.1247241348028183,-0.003644057782366872,3.9388554096221924,6.406442642211914,5.9808454513549805,40.20131301879883,17.254104614257812,51225.0,45844.0,53259.0,44798.0,-0.3000025448675481,0.51961377298239,0.5,-0.3133518099784851,-0.5425822138786316,0.006112474948167801,0.01953793317079544,-0.03869635611772537,0.028232498094439507,1.516436219215393,-1.3874738216400146,3.26873517036438,-21.861085891723633,40.203392028808594,7.847357749938965,56942.0,47301.0,50039.0,53388.0,-0.29999491024331576,-0.5196181808098181,0.5
0.729,TAKEOFF,abrupt,1.0,0.5994839668273926,0.013834579847753048,0.0012737882789224386,-0.030636141076683998,-0.009580562822520733,0.026532230898737907,1.1965290307998657,-0.2619965672492981,3.688328504562378,34.97687911987305,0.10504482686519623,5.115296840667725,50969.0,49673.0,46987.0,42407.0,0.6,0.0,0.5,-0.33795347809791565,0.6653773188591003,0.016496479511260986,-0.10328128188848495,0.012463049031794071,0.13831034302711487,-0.0029544858261942863,3.1389405727386475,6.779179573059082,2.8223323822021484,56.573883056640625,17.504730224609375,55082.0,41137.0,53026.0,45140.0,-0.3000025448675481,0.51961377298239,0.5,-0.3133518099784851,-0.5425822138786316,0.006112474948167801,0.043302662670612335,-0.05188513174653053,0.029141226783394814,1.1852015256881714,-2.2944304943084717,3.50296688079834,-15.70120906829834,29.21080780029297,9.536519050598145,56827.0,48840.0,51183.0,52354.0,-0.29999491024331576,-0.5196181808098181,0.5
0.749,TAKEOFF,abrupt,1.0,0.5994839668273926,0.013834579847753048,0.0012737882789224386,-0.03195757791399956,-0.015522778034210205,0.03212171420454979,1.8575358390808105,-0.23756669461727142,3.820854663848877,18.199066162109375,-9.234434127807617,6.874146461486816,49919.0,49190.0,48927.0,43258.0,0.6,0.0,0.5,-0.33795347809791565,0.6653773188591003,0.016496479511260986,-0.12304672598838806,0.021759914234280586,0.16279958188533783,0.04058385640382767,2.0583763122558594,7.138749122619629,5.517951011657715,40.989051818847656,16.274593353271484,53058.0,42094.0,55101.0,43682.0,-0.3000025448675481,0.51961377298239,0.5,-0.31526485085487366,-0.5428074598312378,0.010722402483224869,0.03237061947584152,-0.04075409099459648,0.02281009778380394,0.760932207107544,-2.7132723331451416,3.68854022026062,-16.846872329711914,21.867063522338867,8.543574333190918,56748.0,48623.0,52283.0,53408.0,-0.29999491024331576,-0.5196181808098181,0.5
0.769,TAKEOFF,abrupt,1.0,0.5994839668273926,0.013834579847753048,0.0012737882789224386,-0.031575318425893784,-0.020648160949349403,0.042543698102235794,2.2273807525634766,-0.050364792346954346,3.9639875888824463,-1.6135659217834473,-4.848909854888916,2.1810576915740967,48888.0,48326.0,50086.0,44940.0,0.6,0.0,0.5,-0.33795347809791565,0.6653773188591003,0.016496479511260986,-0.13143423199653625,0.025721898302435875,0.18016715347766876,0.1211865022778511,1.3065141439437866,7.468499183654785,-0.14286096394062042,17.78070831298828,16.176227569580078,51237.0,40425.0,56941.0,45063.0,-0.3000025448675481,0.51961377298239,0.5,-0.31526485085487366,-0.5428074598312378,0.010722402483224869,0.057369910180568695,-0.049999818205833435,0.02254057675600052,0.5298813581466675,-3.2048676013946533,3.915160655975342,1.0876933336257935,2.563382148742676,10.81190299987793,57826.0,51619.0,52124.0,50899.0,-0.29999491024331576,-0.5196181808098181,0.5
0.789,TAKEOFF,abrupt,1.0,0.5994839668273926,0.013834579847753048,0.0012737882789224386,-0.030677741393446922,-0.027214936912059784,0.049226876348257065,2.145810127258301,0.05481915920972824,4.017865180969238,-12.599565505981445,28.030590057373047,2.026876926422119,51739.0,46111.0,47719.0,47328.0,0.6,0.0,0.5,-0.3472050428390503,0.6684102416038513,0.03225088119506836,-0.10878027975559235,0.012472356669604778,0.17051231861114502,0.09095330536365509,0.8345488905906677,7.794198036193848,-10.747710227966309,14.277314186096191,14.466781616210938,52788.0,43069.0,55724.0,43947.0,-0.3000025448675481,0.51961377298239,0.5,-0.31526485085487366,-0.5428074598312378,0.010722402483224869,0.06888199597597122,-0.05103904753923416,0.02867557667195797,0.5948686003684998,-3.241234540939331,4.121511459350586,17.135286331176758,6.686782360076904,7.638508319854736,60124.0,50750.0,49183.0,52565.0,-0.29999491024331576,-0.5196181808098181,0.5
0.809,TAKEOFF,abrupt,1.0,0.5908812880516052,0.008131803013384342,0.007558899465948343,-0.030857516452670097,-0.0370500311255455,0.053091712296009064,1.9181803464889526,-0.48920249938964844,4.116730690002441,-12.706321716308594,38.277523040771484,5.409394264221191,53118.0,45541.0,47180.0,47675.0,0.6,0.0,0.5,-0.3472050428390503,0.6684102416038513,0.03225088119506836,-0.11684897541999817,0.020239848643541336,0.1888461858034134,-0.07322848588228226,0.6170248985290527,8.037549018859863,5.542232513427734,6.517932415008545,13.833649635314941,52788.0,43069.0,55724.0,43947.0,-0.3000025448675481,0.51961377298239,0.5,-0.31526485085487366,-0.5428074598312378,0.010722402483224869,0.09271454066038132,-0.060007866472005844,0.03553086519241333,1.0527598857879639,-3.539127826690674,4.320816516876221,19.94388198852539,13.929998397827148,8.79212474822998,60133.0,51173.0,50101.0,52413.0,-0.29999491024331576,-0.5196181808098181,0.5
0.829,TAKEOFF,abrupt,1.0,0.5908812880516052,0.008131803013384342,0.007558899465948343,-0.028705580160021782,-0.04332321509718895,0.06377458572387695,1.6546459197998047,-1.2401208877563477,4.3051300048828125,-31.394119262695312,20.351627349853516,10.661983489990234,49821.0,46079.0,50839.0,47833.0,0.6,0.0,0.5,-0.3472050428390503,0.6684102416038513,0.03225088119506836,-0.11889141798019409,0.020150475203990936,0.19515258073806763,0.10328876972198486,0.48593735694885254,8.323573112487793,22.68074607849121,8.038108825683594,14.331911087036133,54900.0,45892.0,54498.0,40871.0,-0.3000025448675481,0.51961377298239,0.5,-0.31526485085487366,-0.5428074598312378,0.010722402483224869,0.10580829530954361,-0.0631316527724266,0.042157333344221115,1.4405560493469238,-3.757662534713745,4.494131088256836,14.247824668884277,-0.048579346388578415,7.742640972137451,60717.0,51446.0,49826.0,52620.0,-0.29999491024331576,-0.5196181808098181,0.5
0.849,TAKEOFF,abrupt,1.0,0.5908812880516052,0.008131803013384342,0.007558899465948343,-0.023934606462717056,-0.04802429676055908,0.06732772290706635,1.135389804840088,-1.678637146949768,4.511003017425537,-8.955974578857422,20.349645614624023,12.08998966217041,51549.0,47035.0,49914.0,46881.0,0.6,0.0,0.5,-0.3472050428390503,0.6684102416038513,0.03225088119506836,-0.12036587297916412,0.019118357449769974,0.20397870242595673,0.5873546004295349,0.34734269976615906,8.601649284362793,25.21397590637207,2.5918455123901367,12.046659469604492,54900.0,45892.0,54498.0,40871.0,-0.3000025448675481,0.51961377298239,0.5,-0.3021392226219177,-0.550133466720581,0.01528978068381548,0.1169486865401268,-0.06370102614164352,0.059327274560928345,1.624601125717163,-3.7629122734069824,4.6008381843566895,-5.8995232582092285,5.962296962738037,9.21936321258545,59750.0,49105.0,51769.0,54568.0,-0.29999491024331576,-0.5196181808098181,0.5
0.869,TAKEOFF,abrupt,1.0,0.5908812880516052,0.008131803013384342,0.007558899465948343,-0.01795843243598938,-0.052033912390470505,0.07523136585950851,1.0031473636627197,-2.342454195022583,4.70747184753418,6.88964319229126,25.02005386352539,13.531255722045898,53352.0,48145.0,48366.0,45887.0,0.6,0.0,0.5,-0.3472050428390503,0.6684102416038513,0.03225088119506836,-0.11527174711227417,0.02028084173798561,0.20956021547317505,0.9795978665351868,0.19918623566627502,8.847492218017578,8.500190734863281,6.151900291442871,12.073691368103027,53277.0,43036.0,56367.0,44839.0,-0.3000025448675481,0.51961377298239,0.5,-0.3021392226219177,-0.550133466720581,0.01528978068381548,0.12123052030801773,-0.05866670981049538,0.0558922104537487,1.3770771026611328,-3.7557215690612793,4.733309745788574,-27.911806106567383,-4.865692615509033,6.265924453735352,57645.0,50542.0,55192.0,54465.0,-0.29999491024331576,-0.5196181808098181,0.5
0.889,TAKEOFF,abrupt,1.0,0.5908812880516052,0.008131803013384342,0.007558899465948343,0.011490055359899998,-0.06917854398488998,0.07946307212114334,1.235599398612976,-2.6986072063446045,4.97727632522583,22.387907028198242,27.01637077331543,14.108211517333984,55340.0,47991.0,46704.0,46030.0,0.6,0.0,0.5,-0.3548813760280609,0.6711405515670776,0.04956134408712387,-0.11528647691011429,0.016589729115366936,0.21606571972370148,1.105827808380127,0.08086958527565002,9.088054656982422,-0.971794843673706,3.4877281188964844,10.18857479095459,53277.0,43036.0,56367.0,44839.0,-0.3000025448675481,0.51961377298239,0.5,-0.3021392226219177,-0.550133466720581,0.01528978068381548,0.13506190478801727,-0.06197301670908928,0.06696063280105591,0.8168196082115173,-3.5144691467285156,4.859922409057617,-27.942413330078125,-36.91976547241211,4.925788879394531,58118.0,52809.0,54885.0,52849.0,-0.29999491024331576,-0.5196181808098181,0.5
0.909,TAKEOFF,abrupt,1.0,0.5921206474304199,0.0007924498640932143,0.014323536306619644,0.021373823285102844,-0.07272351533174515,0.09420370310544968,1.6581149101257324,-3.1504743099212646,5.278885364532471,15.774520874023438,7.3541154861450195,15.50259780883789,54237.0,48550.0,48571.0,45526.0,0.6,0.0,0.5,-0.3548813760280609,0.6711405515670776,0.04956134408712387,-0.11489236354827881,0.012736131437122822,0.221951425075531,1.0139068365097046,0.018381470814347267,9.29104995727539,-14.327174186706543,10.775264739990234,8.864659309387207,53099.0,45033.0,56408.0,44457.0,-0.3000025448675481,0.51961377298239,0.5,-0.3021392226219177,-0.550133466720581,0.01528978068381548,0.14600293338298798,-0.06221819669008255,0.09446834027767181,0.3324951231479645,-2.7006754875183105,4.90557861328125,-8.710309982299805,-55.00741195678711,6.169545650482178,58188.0,54812.0,55129.0,50394.0,-0.29999491024331576,-0.5196181808098181,0.5
0.929,TAKEOFF,abrupt,1.0,0.5921206474304199,0.0007924498640932143,0.014323536306619644,0.03287952020764351,-0.07727901637554169,0.10406039655208588,1.9781960248947144,-3.3054351806640625,5.577335834503174,-0.21502970159053802,3.9359617233276367,15.344783782958984,54512.0,47610.0,48792.0,46659.0,0.6,0.0,0.5,-0.3548813760280609,0.6711405515670776,0.04956134408712387,-0.11422498524188995,0.009468975476920605,0.22969333827495575,0.7560110688209534,-0.19062860310077667,9.462331771850586,-20.26375961303711,18.143205642700195,7.169122219085693,53099.0,45033.0,56408.0,44457.0,-0.3000025448675481,0.51961377298239,0.5,-0.3021392226219177,-0.550133466720581,0.01528978068381548,0.15528668463230133,-0.062495242804288864,0.12113384902477264,0.22608081996440887,-1.5841001272201538,5.045703411102295,-3.4355132579803467,-56.00419998168945,9.033041954040527,58150.0,53517.0,55602.0,51488.0,-0.29999491024331576,-0.5196181808098181,0.5
0.949,TAKEOFF,abrupt,1.0,0.5921206474304199,0.0007924498640932143,0.014323536306619644,0.039342377334833145,-0.06907398253679276,0.12002832442522049,1.8700817823410034,-3.2926747798919678,5.960341453552246,-18.402320861816406,-15.24656867980957,13.69739818572998,53820.0,46926.0,52333.0,44334.0,0.6,0.0,0.5,-0.3548813760280609,0.6711405515670776,0.04956134408712387,-0.11287065595388412,0.007347434293478727,0.23419563472270966,0.3995206654071808,-0.5244943499565125,9.597200393676758,-14.49759292602539,15.161722183227539,6.103987693786621,52483.0,44295.0,56775.0,46025.0,-0.3000025448675481,0.51961377298239,0.5,-0.2912769913673401,-0.5531069040298462,0.02233033813536167,0.15832164883613586,-0.05747386813163757,0.1354883909225464,0.10355597734451294,-0.457077294588089,5.2223591804504395,-15.748906135559082,-43.69976806640625,9.129446983337402,58423.0,52081.0,55721.0,53106.0,-0.29999491024331576,-0.5196181808098181,0.5
0.969,TAKEOFF,abrupt,1.0,0.5921206474304199,0.0007924498640932143,0.014323536306619644,0.05186806619167328,-0.07463715225458145,0.1306697428226471,1.4928759336471558,-3.005554676055908,6.231869697570801,-37.237117767333984,-27.78331184387207,14.553144454956055,53055.0,45759.0,53263.0,46090.0,0.6,0.0,0.5,-0.3548813760280609,0.6711405515670776,0.04956134408712387,-0.06968703120946884,-0.01143367774784565,0.2124532163143158,0.3396857976913452,-1.1614223718643188,9.667655944824219,-4.1192779541015625,21.673036575317383,5.052304744720459,55581.0,44457.0,54841.0,47885.0,-0.3000025448675481,0.51961377298239,0.5,-0.2912769913673401,-0.5531069040298462,0.02233033813536167,0.15509577095508575,-0.05394371971487999,0.15246565639972687,-0.2215145081281662,0.4465777277946472,5.399488925933838,-20.721271514892578,-31.081697463989258,6.166714668273926,58218.0,52013.0,55925.0,53579.0,-0.29999491024331576,-0.5196181808098181,0.5
0.989,TAKEOFF,abrupt,1.0,0.5921206474304199,0.0007924498640932143,0.014323536306619644,0.04770484194159508,-0.0882464051246643,0.14899469912052155,0.8087746500968933,-2.3357229232788086,6.488918781280518,-50.303157806396484,-39.154090881347656,14.16380786895752,51665.0,46648.0,54879.0,44919.0,0.6,0.0,0.5,-0.3587290346622467,0.6683997511863708,0.06693904846906662,-0.0650552287697792,-0.011773382313549519,0.21781517565250397,0.16159206628799438,-1.5674275159835815,9.829424858093262,-0.4675956070423126,18.375507354736328,3.276625394821167,53868.0,44467.0,55911.0,47999.0,-0.3000025448675481,0.51961377298239,0.5,-0.2912769913673401,-0.5531069040298462,0.02233033813536167,0.1525609940290451,-0.052872925996780396,0.1743985265493393,-0.6882727146148682,1.0425013303756714,5.522000789642334,-29.738187789916992,-27.674022674560547,6.696187496185303,57686.0,51728.0,56755.0,53620.0,-0.29999491024331576,-0.5196181808098181,0.5
1.009,TAKEOFF,abrupt,1.0,0.5929674506187439,-0.006343240849673748,0.028785465285182,0.057068292051553726,-0.09078823029994965,0.1618482768535614,-0.18382246792316437,-1.5577465295791626,6.772920608520508,-56.9017448425293,-49.0673713684082,13.110699653625488,50440.0,45890.0,56212.0,45739.0,0.6,0.0,0.5,-0.3587290346622467,0.6683997511863708,0.06693904846906662,-0.06460773199796677,0.008642010390758514,0.25326383113861084,0.12667401134967804,-1.9703019857406616,9.864017486572266,2.5169975757598877,13.015588760375977,-1.350933313369751,54629.0,46090.0,54152.0,48031.0,-0.3000025448675481,0.51961377298239,0.5,-0.2912769913673401,-0.5531069040298462,0.02233033813536167,0.14763502776622772,-0.05003461241722107,0.19700342416763306,-1.2558932304382324,1.6216578483581543,5.671803951263428,-18.283782958984375,-28.17449188232422,7.700387954711914,59101.0,51877.0,55375.0,53260.0,-0.29999491024331576,-0.5196181808098181,0.5
1.029,TAKEOFF,abrupt,1.0,0.5929674506187439,-0.006343240849673748,0.028785465285182,0.058616966009140015,-0.07930891215801239,0.1761680692434311,-1.3692823648452759,-0.5476563572883606,7.09598445892334,-42.61906814575195,-53.26012420654297,12.646976470947266,50544.0,47493.0,56317.0,44101.0,0.6,0.0,0.5,-0.3587290346622467,0.6683997511863708,0.06693904846906662,-0.05572250485420227,0.011657481081783772,0.26375240087509155,0.20629970729351044,-2.2753612995147705,9.851698875427246,16.391578674316406,10.951587677001953,-2.0423057079315186,54216.0,44884.0,54608.0,49290.0,-0.3000025448675481,0.51961377298239,0.5,-0.2912769913673401,-0.5531069040298462,0.02233033813536167,0.1403774470090866,-0.045558568090200424,0.21773368120193481,-1.5601779222488403,2.1504740715026855,5.8320631980896,-0.6633239984512329,-22.478458404541016,7.240128993988037,59694.0,53054.0,54736.0,52024.0,-0.29999491024331576,-0.5196181808098181,0.5
1.049,TAKEOFF,abrupt,1.0,0.5929674506187439,-0.006343240849673748,0.028785465285182,0.06091698259115219,-0.0747571736574173,0.1921667456626892,-2.166116952896118,0.47073131799697876,7.378632545471191,-14.451032638549805,-38.486934661865234,11.010519027709961,52283.0,48395.0,55034.0,43097.0,0.6,0.0,0.5,-0.3587290346622467,0.6683997511863708,0.06693904846906662,-0.046295732259750366,0.013345550745725632,0.27058133482933044,0.43103548884391785,-2.498462677001953,9.866951942443848,20.625293731689453,-1.050950050354004,-2.5983123779296875,53172.0,48385.0,55544.0,46431.0,-0.3000025448675481,0.51961377298239,0.5,-0.2776374816894531,-0.5569890141487122,0.04059447720646858,0.1304912269115448,-0.03962370753288269,0.23677636682987213,-1.6072496175765991,2.5978121757507324,5.9801926612854,2.2303214073181152,-20.616621017456055,6.300448894500732,59344.0,53143.0,55195.0,51960.0,-0.29999491024331576,-0.5196181808098181,0.5
1.069,TAKEOFF,abrupt,1.0,0.5929674506187439,-0.006343240849673748,0.028785465285182,0.0871226042509079,-0.07097253948450089,0.22028379142284393,-2.33510160446167,1.0162724256515503,7.558554172515869,13.384735107421875,-16.46647834777832,10.106867790222168,53999.0,49599.0,52127.0,43661.0,0.6,0.0,0.5,-0.3587290346622467,0.6683997511863708,0.06693904846906662,-0.04038182273507118,0.018109871074557304,0.28484630584716797,0.7937313318252563,-2.4331133365631104,9.860658645629883,13.615156173706055,-11.803350448608398,-3.1855664253234863,53172.0,48385.0,55544.0,46431.0,-0.3000025448675481,0.51961377298239,0.5,-0.2776374816894531,-0.5569890141487122,0.04059447720646858,0.1157381609082222,-0.04399256408214569,0.2546268701553345,-1.492391586303711,3.0409860610961914,6.057229042053223,2.8111953735351562,-23.416336059570312,5.878811836242676,58268.0,53723.0,56496.0,51264.0,-0.29999491024331576,-0.5196181808098181,0.5
1.089,TAKEOFF,abrupt,1.0,0.5929674506187439,-0.006343240849673748,0.028785465285182,0.08465550094842911,-0.0669555813074112,0.2281978577375412,-2.013286828994751,1.3114441633224487,7.761364459991455,29.520511627197266,-2.059135913848877,9.215874671936035,55484.0,49342.0,51224.0,43052.0,0.6,0.0,0.5,-0.3654414415359497,0.6740809082984924,0.09890811145305634,-0.022128285840153694,0.008690228685736656,0.2834010124206543,1.1185221672058105,-2.262627601623535,9.782742500305176,10.429845809936523,-7.234564781188965,-3.6902546882629395,53924.0,47865.0,55227.0,46513.0,-0.3000025448675481,0.51961377298239,0.5,-0.2776374816894531,-0.5569890141487122,0.04059447720646858,0.10327699780464172,-0.03977324068546295,0.272800475358963,-1.4266670942306519,3.58630108833313,6.201344966888428,3.468449831008911,-31.99564552307129,6.602766513824463,58307.0,54233.0,56623.0,50441.0,-0.29999491024331576,-0.5196181808098181,0.5
1.109,TAKEOFF,abrupt,1.0,0.6039118766784668,-0.01320667564868927,0.050299450755119324,0.07892730832099915,-0.059867165982723236,0.2443142533302307,-1.4018281698226929,1.3332786560058594,7.85401725769043,26.356609344482422,2.1681668758392334,7.867128372192383,55443.0,50056.0,49915.0,44132.0,0.6,0.0,0.5,-0.3654414415359497,0.6740809082984924,0.09890811145305634,-0.011198065243661404,0.0046653784811496735,0.28793448209762573,1.3402637243270874,-2.2119977474212646,9.66019344329834,1.5136816501617432,0.6629803776741028,-3.935286283493042,54644.0,47094.0,54861.0,47953.0,-0.3000025448675481,0.51961377298239,0.5,-0.2776374816894531,-0.5569890141487122,0.04059447720646858,0.08885979652404785,-0.03610863536596298,0.28812286257743835,-1.3910447359085083,4.229243755340576,6.344228744506836,-2.603532552719116,-29.351449966430664,4.04778528213501,58014.0,53683.0,56803.0,51313.0,-0.29999491024331576,-0.5196181808098181,0.5
1.129,TAKEOFF,abrupt,1.0,0.6039118766784668,-0.01320667564868927,0.050299450755119324,0.06747891008853912,-0.032892435789108276,0.26046696305274963,-1.067096471786499,1.3432024717330933,7.971011161804199,11.083564758300781,-8.18798828125,7.510940074920654,53848.0,49391.0,51293.0,45680.0,0.6,0.0,0.5,-0.3654414415359497,0.6740809082984924,0.09890811145305634,0.001085636205971241,-0.0005333757144398987,0.29519736766815186,1.3212647438049316,-2.2509398460388184,9.582571029663086,-8.581999778747559,-0.2680264711380005,-2.878514289855957,54475.0,46288.0,55206.0,49170.0,-0.3000025448675481,0.51961377298239,0.5,-0.2776374816894531,-0.5569890141487122,0.04059447720646858,0.07266350090503693,-0.032869260758161545,0.2966447174549103,-1.4546571969985962,4.750844478607178,6.442560195922852,-6.12514591217041,-8.873306274414062,2.445970058441162,58974.0,52134.0,55895.0,53119.0,-0.29999491024331576,-0.5196181808098181,0.5
1.149,TAKEOFF,abrupt,1.0,0.6039118766784668,-0.01320667564868927,0.050299450755119324,0.06524418294429779,-0.03236321359872818,0.27422934770584106,-0.9156401753425598,1.4938831329345703,8.051280975341797,-10.67526626586914,-5.124265670776367,8.696276664733887,53735.0,47018.0,53222.0,46020.0,0.6,0.0,0.5,-0.3654414415359497,0.6740809082984924,0.09890811145305634,0.0105495136231184,-0.003434449667111039,0.30350226163864136,1.1616874933242798,-2.2276508808135986,9.524592399597168,-8.177034378051758,-9.007682800292969,-3.2290220260620117,53897.0,47227.0,55995.0,48333.0,-0.3000025448675481,0.51961377298239,0.5,-0.2688859701156616,-0.5622046589851379,0.06831492483615875,0.05501478165388107,-0.02952396497130394,0.3045929968357086,-1.5813813209533691,4.877934455871582,6.493235111236572,-8.980644226074219,2.676330327987671,0.1050068587064743,59185.0,51932.0,55531.0,53783.0,-0.29999491024331576,-0.5196181808098181,0.5
1.169,TAKEOFF,abrupt,1.0,0.6039118766784668,-0.01320667564868927,0.050299450755119324,0.0589437298476696,-0.03200160712003708,0.28672701120376587,-0.9589729309082031,1.6885839700698853,8.157299995422363,-13.581783294677734,0.12592363357543945,7.865536689758301,53192.0,46958.0,53082.0,47229.0,0.6,0.0,0.5,-0.3654414415359497,0.6740809082984924,0.09890811145305634,0.021207012236118317,-0.0069411080330610275,0.3154936730861664,1.012647032737732,-2.083500623703003,9.471171379089355,-5.290405750274658,-14.95129108428955,-3.2712295055389404,53902.0,46750.0,56088.0,49052.0,-0.3000025448675481,0.51961377298239,0.5,-0.2688859701156616,-0.5622046589851379,0.06831492483615875,0.03700679540634155,-0.025671714916825294,0.31353694200515747,-1.7728774547576904,4.784552574157715,6.4925689697265625,-11.221929550170898,10.361164093017578,-0.23330789804458618,58579.0,52325.0,56394.0,53521.0,-0.29999491024331576,-0.5196181808098181,0.5
1.189,TAKEOFF,abrupt,1.0,0.6039118766784668,-0.01320667564868927,0.050299450755119324,0.03753669559955597,-0.04201864078640938,0.29384732246398926,-1.3355482816696167,1.658366322517395,8.385794639587402,-15.249350547790527,-7.419926166534424,7.113892555236816,53573.0,48592.0,53964.0,44160.0,0.6,0.0,0.5,-0.36304911971092224,0.673849880695343,0.1259477734565735,0.025837915018200874,-0.006601558066904545,0.33069485425949097,0.9054009914398193,-1.7801446914672852,9.439594268798828,-4.368736743927002,-15.516260147094727,-3.7278501987457275,53686.0,47976.0,55900.0,48597.0,-0.3000025448675481,0.51961377298239,0.5,-0.2688859701156616,-0.5622046589851379,0.06831492483615875,0.024220941588282585,-0.02362615056335926,0.31612107157707214,-1.9937715530395508,4.53228759765625,6.4339470863342285,-14.523818016052246,17.928598403930664,-0.6387614011764526,58650.0,52011.0,55517.0,55363.0,-0.29999491024331576,-0.5196181808098181,0.5
1.209,TAKEOFF,abrupt,1.0,0.6032355427742004,-0.01613774523139,0.07973521947860718,0.030936922878026962,-0.038418758660554886,0.30333584547042847,-1.609969139099121,1.6510025262832642,8.489278793334961,-12.799630165100098,-8.265298843383789,8.461161613464355,53604.0,48381.0,54122.0,44504.0,0.6,0.0,0.5,-0.36304911971092224,0.673849880695343,0.1259477734565735,0.04065743088722229,-0.014316955581307411,0.3415301442146301,0.9157934188842773,-1.56121826171875,9.323590278625488,-4.47471809387207,-11.17116641998291,-2.86478590965271,52938.0,45909.0,56946.0,49780.0,-0.3000025448675481,0.51961377298239,0.5,-0.2688859701156616,-0.5622046589851379,0.06831492483615875,0.006219897884875536,-0.017850561067461967,0.32552221417427063,-2.2570104598999023,4.158796787261963,6.341643810272217,-6.713588237762451,28.513574600219727,-2.0539796352386475,59498.0,51503.0,54876.0,55658.0,-0.29999491024331576,-0.5196181808098181,0.5
1.229,TAKEOFF,abrupt,1.0,0.6032355427742004,-0.01613774523139,0.07973521947860718,0.03600161895155907,-0.03713318705558777,0.3095840811729431,-1.8715428113937378,1.7905476093292236,8.597885131835938,-8.992391586303711,-3.995368242263794,7.86956787109375,54204.0,48308.0,53699.0,44865.0,0.6,0.0,0.5,-0.36304911971092224,0.673849880695343,0.1259477734565735,0.04556676745414734,-0.0162062831223011,0.35899168252944946,0.8474915623664856,-1.3428897857666016,9.232474327087402,-2.573491334915161,-2.9770047664642334,-5.262227535247803,53812.0,47421.0,55654.0,49536.0,-0.3000025448675481,0.51961377298239,0.5,-0.2688859701156616,-0.5622046589851379,0.06831492483615875,0.029759211465716362,-0.029517563059926033,0.3607962131500244,-2.200788736343384,3.3337960243225098,6.241842746734619,3.152329444885254,21.78486442565918,-2.2398574352264404,59945.0,52631.0,53740.0,53717.0,-0.29999491024331576,-0.5196181808098181,0.5
1.249,TAKEOFF,abrupt,1.0,0.6032355427742004,-0.01613774523139,0.07973521947860718,0.025832990184426308,-0.019388744607567787,0.3202284872531891,-2.1298701763153076,1.8499325513839722,8.73910903930664,-3.308412551879883,-1.1882044076919556,6.8164381980896,53448.0,48361.0,54358.0,45219.0,0.6,0.0,0.5,-0.36304911971092224,0.673849880695343,0.1259477734565735,0.049896400421857834,-0.017496921122074127,0.37496453523635864,0.6709363460540771,-1.194843053817749,9.202341079711914,-2.5667288303375244,-7.74541711807251,-4.543806076049805,53697.0,46212.0,55218.0,50361.0,-0.3000025448675481,0.51961377298239,0.5,-0.2574823200702667,-0.5690229535102844,0.10760531574487686,0.02271885797381401,-0.02370285429060459,0.3693869113922119,-2.1055328845977783,2.8776419162750244,6.149755477905273,6.147129058837891,12.003303527832031,-3.5419838428497314,59308.0,52345.0,54391.0,54284.0,-0.29999491024331576,-0.5196181808098181,0.5
1.269,TAKEOFF,abrupt,1.0,0.6032355427742004,-0.01613774523139,0.07973521947860718,0.02160562388598919,-0.014287387952208519,0.32924169301986694,-2.1815171241760254,1.860720157623291,8.874136924743652,8.427864074707031,3.148559331893921,6.217545032501221,54855.0,48586.0,52941.0,44897.0,0.6,0.0,0.5,-0.36304911971092224,0.673849880695343,0.1259477734565735,0.046944014728069305,-0.011307702399790287,0.38999900221824646,0.5529102683067322,-1.0810073614120483,9.101632118225098,-8.660919189453125,-6.01639461517334,-5.431731224060059,53697.0,46212.0,55218.0,50361.0,-0.3000025448675481,0.51961377298239,0.5,-0.2574823200702667,-0.5690229535102844,0.10760531574487686,0.015796300023794174,-0.01676233299076557,0.3662783205509186,-1.9759387969970703,2.6535074710845947,6.048341751098633,4.987030029296875,-1.2221922874450684,-5.622225761413574,58394.0,53908.0,55374.0,53354.0,-0.29999491024331576,-0.5196181808098181,0.5
1.289,TAKEOFF,abrupt,1.0,0.6032355427742004,-0.01613774523139,0.07973521947860718,0.01388353481888771,-0.0076720030046999454,0.33640381693840027,-2.024479866027832,1.7809604406356812,8.995386123657227,15.934675216674805,5.376575946807861,7.152801036834717,54801.0,48890.0,52892.0,44312.0,0.6,0.0,0.5,-0.3596380054950714,0.6734938025474548,0.15860940515995026,0.0722985714673996,-0.026805561035871506,0.3892480134963989,0.5258421897888184,-1.0848662853240967,8.933183670043945,-5.619956970214844,-6.501354694366455,-5.149085998535156,52936.0,45637.0,56263.0,49412.0,-0.3000025448675481,0.51961377298239,0.5,-0.2574823200702667,-0.5690229535102844,0.10760531574487686,-0.005643903277814388,-0.005247976630926132,0.3628981411457062,-1.941161870956421,2.8189995288848877,5.923361778259277,-0.4400845170021057,-11.677214622497559,-5.694194793701172,58098.0,53066.0,56249.0,53780.0,-0.29999491024331576,-0.5196181808098181,0.5
1.309,TAKEOFF,abrupt,1.0,0.6028730869293213,-0.0128841083496809,0.11247172206640244,-0.01182570680975914,0.016449155285954475,0.33955469727516174,-1.8996697664260864,1.7504463195800781,9.166801452636719,14.845865249633789,8.924907684326172,5.058276653289795,54213.0,48526.0,53421.0,44705.0,0.6,0.0,0.5,-0.3596380054950714,0.6734938025474548,0.15860940515995026,0.0763472467660904,-0.02797728404402733,0.4019679129123688,0.4162449240684509,-0.9329962134361267,8.82500171661377,-4.591256141662598,-8.270746231079102,-5.707486629486084,52971.0,47524.0,54891.0,48260.0,-0.3000025448675481,0.51961377298239,0.5,-0.2574823200702667,-0.5690229535102844,0.10760531574487686,-0.020641202107071877,0.0026612032670527697,0.3663047254085541,-1.9844309091567993,3.083042860031128,5.828342914581299,-7.336187839508057,-13.338069915771484,-6.694329261779785,57069.0,53270.0,57115.0,53617.0,-0.29999491024331576,-0.5196181808098181,0.5
1.329,TAKEOFF,abrupt,1.0,0.6028730869293213,-0.0128841083496809,0.11247172206640244,-0.028965583071112633,0.03004082292318344,0.34544312953948975,-1.6371119022369385,1.5658820867538452,9.305145263671875,17.282310485839844,12.8203706741333,4.5272955894470215,54027.0,48764.0,53431.0,44360.0,0.6,0.0,0.5,-0.3596380054950714,0.6734938025474548,0.15860940515995026,0.07974636554718018,-0.02888578176498413,0.4145568609237671,0.3333001136779785,-0.7396849393844604,8.719192504882812,-3.939321756362915,-7.964163780212402,-4.51120138168335,52971.0,47524.0,54891.0,48260.0,-0.3000025448675481,0.51961377298239,0.5,-0.2574823200702667,-0.5690229535102844,0.10760531574487686,-0.01895940490067005,0.000689819804392755,0.3697900176048279,-2.0466296672821045,3.2667758464813232,5.66352653503418,-6.856513977050781,-8.39240837097168,-7.30601692199707,57566.0,53448.0,56358.0,53415.0,-0.29999491024331576,-0.5196181808098181,0.5
1.349,TAKEOFF,abrupt,1.0,0.6028730869293213,-0.0128841083496809,0.11247172206640244,-0.035784997045993805,0.03523042052984238,0.3558303415775299,-1.188767671585083,1.2208284139633179,9.322038650512695,13.034136772155762,15.26233196258545,3.8215065002441406,54515.0,47594.0,52562.0,45550.0,0.6,0.0,0.5,-0.3596380054950714,0.6734938025474548,0.15860940515995026,0.07518139481544495,-0.028012864291667938,0.431281179189682,0.04803108796477318,-0.33610010147094727,8.689563751220703,-0.6563699245452881,-14.769366264343262,-6.7430901527404785,50824.0,45917.0,55103.0,48821.0,-0.3000025448675481,0.51961377298239,0.5,-0.2630191743373871,-0.5657245516777039,0.14146007597446442,-0.0338522270321846,0.006076136603951454,0.38389790058135986,-2.157797336578369,3.3987889289855957,5.523021697998047,-3.251861572265625,1.8921087980270386,-6.963225841522217,58159.0,53165.0,55282.0,53207.0,-0.29999491024331576,-0.5196181808098181,0.5
1.369,TAKEOFF,abrupt,1.0,0.6028730869293213,-0.0128841083496809,0.11247172206640244,-0.030706346035003662,0.02838464267551899,0.3767794370651245,-0.8889819383621216,0.9082388281822205,9.339941024780273,10.795656204223633,13.841776847839355,3.8536291122436523,53981.0,47643.0,52472.0,45025.0,0.6,0.0,0.5,-0.3596380054950714,0.6734938025474548,0.15860940515995026,0.05653917416930199,-0.008214738219976425,0.4511217474937439,-0.026005197316408157,-0.06542719155550003,8.57878589630127,-6.495538234710693,-14.183893203735352,-4.755806922912598,52167.0,44828.0,54776.0,47383.0,-0.3000025448675481,0.51961377298239,0.5,-0.2630191743373871,-0.5657245516777039,0.14146007597446442,-0.04557375982403755,0.018647953867912292,0.3897615969181061,-2.224616289138794,3.3177285194396973,5.410062789916992,0.8477439880371094,12.305414199829102,-6.722891330718994,58429.0,51760.0,54648.0,54317.0,-0.29999491024331576,-0.5196181808098181,0.5
1.389,TAKEOFF,abrupt,1.0,0.6028730869293213,-0.0128841083496809,0.11247172206640244,-0.03265086188912392,0.025633851066231728,0.39167535305023193,-0.6963409781455994,0.6701697111129761,9.348955154418945,4.3383893966674805,9.393524169921875,2.8607518672943115,53463.0,47500.0,52637.0,44593.0,0.6,0.0,0.5,-0.3485267162322998,0.6688461899757385,0.20567291975021362,0.0692327693104744,-0.024374904111027718,0.45576930046081543,-0.01513221301138401,0.14909616112709045,8.409366607666016,-3.8844375610351562,-10.640631675720215,-4.2718939781188965,52445.0,43289.0,54000.0,48057.0,-0.3000025448675481,0.51961377298239,0.5,-0.2630191743373871,-0.5657245516777039,0.14146007597446442,-0.05001535266637802,0.019507069140672684,0.3996472656726837,-2.1053214073181152,3.022645950317383,5.255995273590088,6.161789417266846,17.73033332824707,-5.648682594299316,59021.0,51544.0,53470.0,54086.0,-0.29999491024331576,-0.5196181808098181,0.5
1.409,TAKEOFF,abrupt,1.0,0.5994949340820312,-0.01201271079480648,0.15401117503643036,-0.03711380809545517,0.02283664420247078,0.40668782591819763,-0.6693595051765442,0.5556535124778748,9.431954383850098,-1.1570488214492798,5.085951328277588,2.0658349990844727,52612.0,48543.0,52920.0,42882.0,0.6,0.0,0.5,-0.3485267162322998,0.6688461899757385,0.20567291975021362,0.07383423298597336,-0.026464100927114487,0.4586046636104584,-0.05519631877541542,0.2748895585536957,8.264171600341797,-3.7905375957489014,-2.842632293701172,-3.0950872898101807,52445.0,43289.0,54000.0,48057.0,-0.3000025448675481,0.51961377298239,0.5,-0.2630191743373871,-0.5657245516777039,0.14146007597446442,-0.07510735094547272,0.03222865238785744,0.41082292795181274,-2.015104055404663,2.708829164505005,5.121230125427246,10.213451385498047,19.146121978759766,-5.282903671264648,58061.0,52481.0,54129.0,52697.0,-0.29999491024331576,-0.5196181808098181,0.5
1.429,TAKEOFF,abrupt,1.0,0.5994949340820312,-0.01201271079480648,0.15401117503643036,-0.04331621527671814,0.02638690546154976,0.40776124596595764,-0.7009136080741882,0.4912547767162323,9.458964347839355,-2.567821979522705,1.2245819568634033,0.8140901923179626,52588.0,47293.0,52740.0,44307.0,0.6,0.0,0.5,-0.3485267162322998,0.6688461899757385,0.20567291975021362,0.07563897967338562,-0.026119591668248177,0.4602270722389221,-0.050069376826286316,0.35264500975608826,8.139627456665039,3.8399224281311035,-4.718289375305176,-3.681265115737915,51330.0,44707.0,53561.0,47207.0,-0.3000025448675481,0.51961377298239,0.5,-0.2630191743373871,-0.5657245516777039,0.14146007597446442,-0.08596426993608475,0.03577142208814621,0.4180772006511688,-1.8117722272872925,2.307666540145874,4.999597072601318,9.771746635437012,16.86207389831543,-5.690976619720459,58333.0,52010.0,53281.0,52835.0,-0.29999491024331576,-0.5196181808098181,0.5
1.449,TAKEOFF,abrupt,1.0,0.5994949340820312,-0.01201271079480648,0.15401117503643036,-0.04689968749880791,0.028650766238570213,0.40984195470809937,-0.7707933783531189,0.4613194465637207,9.484880447387695,-3.0238559246063232,1.7878150939941406,-0.7764284014701843,52545.0,47601.0,52220.0,44275.0,0.6,0.0,0.5,-0.3485267162322998,0.6688461899757385,0.20567291975021362,0.05763519927859306,-0.014349596574902534,0.47488877177238464,-0.12299438565969467,0.5617029070854187,8.09287166595459,3.1488797664642334,-6.174959659576416,-4.113406181335449,50716.0,45766.0,54096.0,44390.0,-0.3000025448675481,0.51961377298239,0.5,-0.2726786434650421,-0.5600731372833252,0.18193864822387695,-0.09432733803987503,0.04130544885993004,0.4250386357307434,-1.5951662063598633,1.9883906841278076,4.884253978729248,12.0324068069458,10.802803993225098,-5.603558540344238,57246.0,51981.0,54072.0,52505.0,-0.29999491024331576,-0.5196181808098181,0.5
1.469,TAKEOFF,abrupt,1.0,0.5994949340820312,-0.01201271079480648,0.15401117503643036,-0.04970640316605568,0.030674880370497704,0.41079702973365784,-0.7940369248390198,0.424833208322525,9.472692489624023,3.391798734664917,-0.6372355818748474,-1.4060741662979126,52059.0,47841.0,52455.0,43882.0,0.6,0.0,0.5,-0.3485267162322998,0.6688461899757385,0.20567291975021362,0.055700331926345825,-0.014182059094309807,0.4789206087589264,-0.08628484606742859,0.6924353241920471,8.008769035339355,2.2804534435272217,-10.708645820617676,-4.301920413970947,51054.0,43583.0,53545.0,45774.0,-0.3000025448675481,0.51961377298239,0.5,-0.2726786434650421,-0.5600731372833252,0.18193864822387695,-0.0910906046628952,0.05136318504810333,0.43070775270462036,-1.40603506565094,1.7106459140777588,4.796767234802246,12.179834365844727,5.458475112915039,-4.713216781616211,57294.0,51328.0,53584.0,52711.0,-0.29999491024331576,-0.5196181808098181,0.5
1.489,TAKEOFF,abrupt,1.0,0.5994949340820312,-0.01201271079480648,0.15401117503643036,-0.052170585840940475,0.03256338834762573,0.41346976161003113,-0.7357156872749329,0.42060205340385437,9.439688682556152,5.61105489730835,1.6261471509933472,-3.2279140949249268,52066.0,48097.0,52173.0,43389.0,0.6,0.0,0.5,-0.3424258232116699,0.6686148047447205,0.2521035671234131,0.053414374589920044,-0.014195285737514496,0.48047932982444763,-0.18794448673725128,0.944652795791626,7.996952533721924,-1.5426554679870605,-5.1839375495910645,-2.070223331451416,50298.0,44376.0,52513.0,45568.0,-0.3000025448675481,0.51961377298239,0.5,-0.2726786434650421,-0.5600731372833252,0.18193864822387695,-0.10423487424850464,0.06595635414123535,0.4333796203136444,-1.278240442276001,1.6154072284698486,4.69554328918457,7.672544479370117,11.276123046875,-5.390420913696289,56458.0,51743.0,54144.0,51965.0,-0.29999491024331576,-0.5196181808098181,0.5
1.509,TAKEOFF,abrupt,1.0,0.5912600755691528,-0.009071250446140766,0.19291497766971588,-0.054255105555057526,0.03417200222611427,0.41469717025756836,-0.6347566843032837,0.35750842094421387,9.381022453308105,7.3584723472595215,8.762877464294434,-1.8983553647994995,52287.0,47852.0,51852.0,43312.0,0.6,0.0,0.5,-0.3424258232116699,0.6686148047447205,0.2521035671234131,0.051315777003765106,-0.014100770466029644,0.48098883032798767,-0.14128530025482178,0.9773250818252563,7.939929485321045,3.6709084510803223,-1.779798150062561,-4.97083854675293,50452.0,42717.0,53096.0,45399.0,-0.3000025448675481,0.51961377298239,0.5,-0.2726786434650421,-0.5600731372833252,0.18193864822387695,-0.08996862918138504,0.05748746544122696,0.43762829899787903,-0.9915456771850586,1.2482011318206787,4.5875396728515625,9.625092506408691,12.707364082336426,-5.493488311767578,57164.0,51408.0,52834.0,51923.0,-0.29999491024331576,-0.5196181808098181,0.5
1.529,TAKEOFF,abrupt,1.0,0.5912600755691528,-0.009071250446140766,0.19291497766971588,-0.05603817105293274,0.035401199012994766,0.41636744141578674,-0.45267775654792786,0.1827852874994278,9.339560508728027,12.446650505065918,10.745186805725098,-4.59317684173584,52728.0,47783.0,51052.0,43314.0,0.6,0.0,0.5,-0.3424258232116699,0.6686148047447205,0.2521035671234131,0.04600829258561134,-0.017372604459524155,0.4774380326271057,0.02677278034389019,1.0042673349380493,7.82166862487793,7.959825038909912,-5.936984539031982,-2.643381118774414,51078.0,44089.0,52305.0,44236.0,-0.3000025448675481,0.51961377298239,0.5,-0.2726786434650421,-0.5600731372833252,0.18193864822387695,-0.09432712942361832,0.060420628637075424,0.4401986300945282,-0.7772713899612427,0.9996185302734375,4.4774556159973145,10.58713150024414,13.648150444030762,-4.748834609985352,57026.0,50418.0,52604.0,52439.0,-0.29999491024331576,-0.5196181808098181,0.5
1.549,TAKEOFF,abrupt,1.0,0.5912600755691528,-0.009071250446140766,0.19291497766971588,-0.05720306932926178,0.03581758961081505,0.41660845279693604,-0.18715466558933258,-0.09751200675964355,9.238667488098145,9.49398136138916,17.984769821166992,-3.83268141746521,52517.0,48169.0,50584.0,43282.0,0.6,0.0,0.5,-0.3424258232116699,0.6686148047447205,0.2521035671234131,0.04693831130862236,-0.02000988833606243,0.46847474575042725,0.1641523838043213,1.0916237831115723,7.732769012451172,4.389378070831299,0.8867509365081787,-4.293491363525391,51078.0,44089.0,52305.0,44236.0,-0.3000025448675481,0.51961377298239,0.5,-0.27848196029663086,-0.5529769659042358,0.22513335943222046,-0.0977235808968544,0.06265846639871597,0.4415190517902374,-0.5649277567863464,0.7395648956298828,4.383206367492676,11.656867980957031,12.391228675842285,-4.8681416511535645,56908.0,50911.0,52336.0,51567.0,-0.29999491024331576,-0.5196181808098181,0.5
1.569,TAKEOFF,abrupt,1.0,0.5912600755691528,-0.009071250446140766,0.19291497766971588,-0.05506874620914459,0.033417969942092896,0.41971904039382935,0.022335480898618698,-0.4080185294151306,9.1549711227417,12.639985084533691,11.22170352935791,-6.539953708648682,52173.0,48384.0,50994.0,42110.0,0.6,0.0,0.5,-0.3424258232116699,0.6686148047447205,0.2521035671234131,0.04260009154677391,-0.019197633489966393,0.46333861351013184,0.21906183660030365,1.0667442083358765,7.652059555053711,4.050621509552002,0.35584768652915955,-5.709282875061035,51221.0,43457.0,51604.0,44266.0,-0.3000025448675481,0.51961377298239,0.5,-0.27848196029663086,-0.5529769659042358,0.22513335943222046,-0.10795849561691284,0.07999113202095032,0.43668827414512634,-0.447286993265152,0.587867796421051,4.314380168914795,13.394765853881836,7.603526592254639,-4.936460494995117,56355.0,50898.0,52686.0,51491.0,-0.29999491024331576,-0.5196181808098181,0.5
1.589,TAKEOFF,abrupt,1.0,0.5912600755691528,-0.009071250446140766,0.19291497766971588,-0.055994145572185516,0.03325482830405235,0.4155677556991577,0.24831226468086243,-0.7454968094825745,9.006363868713379,2.6309125423431396,16.811689376831055,-6.614709854125977,52709.0,46786.0,50241.0,44022.0,0.6,0.0,0.5,-0.33905842900276184,0.6680852174758911,0.2950507700443268,0.034092482179403305,-0.016044585034251213,0.46280935406684875,0.2596454620361328,0.9921259880065918,7.550849914550781,-1.0205024480819702,2.6114871501922607,-5.637986183166504,50932.0,43944.0,51566.0,43622.0,-0.3000025448675481,0.51961377298239,0.5,-0.27848196029663086,-0.5529769659042358,0.22513335943222046,-0.12531989812850952,0.06288439780473709,0.44211575388908386,-0.06802147626876831,0.5611532330513,4.202163219451904,13.996302604675293,4.558148384094238,-4.722599983215332,56146.0,51603.0,52593.0,50478.0,-0.29999491024331576,-0.5196181808098181,0.5
1.609,TAKEOFF,abrupt,1.0,0.5869753360748291,-0.007683933712542057,0.23553155362606049,-0.05371423810720444,0.03288998827338219,0.41177645325660706,0.25420936942100525,-1.004172921180725,8.951088905334473,-4.17144250869751,14.59769344329834,-6.21284818649292,52121.0,46052.0,50723.0,44692.0,0.6,0.0,0.5,-0.33905842900276184,0.6680852174758911,0.2950507700443268,0.030856765806674957,-0.017344340682029724,0.45488861203193665,0.24915915727615356,0.9479865431785583,7.442494869232178,-4.304325580596924,2.735910177230835,-5.7601799964904785,50932.0,43944.0,51566.0,43622.0,-0.3000025448675481,0.51961377298239,0.5,-0.27848196029663086,-0.5529769659042358,0.22513335943222046,-0.1291418820619583,0.06371777504682541,0.4394209384918213,0.19787317514419556,0.46121564507484436,4.088217735290527,11.207408905029297,8.295207023620605,-4.897029399871826,56317.0,51589.0,51782.0,50117.0,-0.29999491024331576,-0.5196181808098181,0.5
1.629,TAKEOFF,abrupt,1.0,0.5869753360748291,-0.007683933712542057,0.23553155362606049,-0.05919771268963814,0.0358227901160717,0.39987581968307495,0.15205536782741547,-1.2342709302902222,8.833383560180664,-8.147868156433105,8.83365535736084,-7.2145819664001465,51723.0,46364.0,51182.0,44476.0,0.6,0.0,0.5,-0.33905842900276184,0.6680852174758911,0.2950507700443268,0.04543697088956833,-0.0298358965665102,0.4317122995853424,0.27721840143203735,0.765865683555603,7.275789260864258,-3.9838290214538574,1.7562484741210938,-6.267426490783691,50388.0,43349.0,52005.0,44519.0,-0.3000025448675481,0.51961377298239,0.5,-0.27848196029663086,-0.5529769659042358,0.22513335943222046,-0.1259833127260208,0.0598970428109169,0.4404224157333374,0.4771733283996582,0.2607623338699341,3.961394786834717,12.148085594177246,9.060786247253418,-5.842909336090088,56308.0,50816.0,51249.0,50706.0,-0.29999491024331576,-0.5196181808098181,0.5
1.649,TAKEOFF,abrupt,1.0,0.5869753360748291,-0.007683933712542057,0.23553155362606049,-0.05517737567424774,0.03582185134291649,0.39546120166778564,0.00873110257089138,-1.396369457244873,8.689181327819824,-5.725853443145752,6.684191703796387,-7.896595478057861,51364.0,45738.0,51261.0,45249.0,0.6,0.0,0.5,-0.33905842900276184,0.6680852174758911,0.2950507700443268,0.05044608563184738,-0.033848103135824203,0.4149073362350464,0.13301639258861542,0.7765354514122009,7.158727169036865,-3.9833433628082275,2.1148455142974854,-6.552978515625,50289.0,42863.0,51814.0,44965.0,-0.3000025448675481,0.51961377298239,0.5,-0.29147571325302124,-0.5496171116828918,0.27021002769470215,-0.1265864074230194,0.05807100608944893,0.4356713891029358,0.6978470087051392,0.05096457153558731,3.845348834991455,9.06828784942627,12.677835464477539,-5.35399055480957,56001.0,49936.0,51273.0,51170.0,-0.29999491024331576,-0.5196181808098181,0.5
1.669,TAKEOFF,abrupt,1.0,0.5869753360748291,-0.007683933712542057,0.23553155362606049,-0.05064554139971733,0.036365438252687454,0.39160916209220886,-0.10836149752140045,-1.4866554737091064,8.534061431884766,-5.429773807525635,1.8457796573638916,-8.140514373779297,51072.0,46563.0,51353.0,44338.0,0.6,0.0,0.5,-0.33905842900276184,0.6680852174758911,0.2950507700443268,0.031905967742204666,-0.024182863533496857,0.41449832916259766,-0.017790064215660095,0.789611279964447,7.091638565063477,-3.1270508766174316,1.0786709785461426,-7.820712089538574,49607.0,42800.0,52106.0,44660.0,-0.3000025448675481,0.51961377298239,0.5,-0.29147571325302124,-0.5496171116828918,0.27021002769470215,-0.12041918188333511,0.053089987486600876,0.4274488091468811,0.8805609345436096,-0.2766372263431549,3.761603593826294,4.146234512329102,17.335147857666016,-4.752045631408691,56177.0,49488.0,50889.0,51416.0,-0.29999491024331576,-0.5196181808098181,0.5
1.689,TAKEOFF,abrupt,1.0,0.5869753360748291,-0.007683933712542057,0.23553155362606049,-0.024053044617176056,0.022958246991038322,0.4027896523475647,-0.04639855772256851,-1.6301648616790771,8.333738327026367,0.527938723564148,-1.4343914985656738,-7.919593811035156,51777.0,46574.0,50100.0,43759.0,0.6,0.0,0.5,-0.3331668972969055,0.6659674644470215,0.33675962686538696,0.03174271434545517,-0.024902185425162315,0.4017668664455414,-0.0009988110978156328,0.7095581889152527,6.888444423675537,-4.686471462249756,-1.2091596126556396,-6.4041948318481445,49803.0,43125.0,52111.0,44676.0,-0.3000025448675481,0.51961377298239,0.5,-0.29147571325302124,-0.5496171116828918,0.27021002769470215,-0.11905874311923981,0.050196100026369095,0.42034879326820374,0.9522547721862793,-0.5963946580886841,3.6794819831848145,0.11370525509119034,14.765679359436035,-4.388446807861328,56033.0,49756.0,50902.0,50914.0,-0.29999491024331576,-0.5196181808098181,0.5
1.709,TAKEOFF,abrupt,1.0,0.5765297412872314,-0.011949445120990276,0.27432048320770264,-0.05198400095105171,-0.0083412891253829,0.3865419030189514,0.1651449352502823,-1.3298735618591309,8.183503150939941,3.52862286567688,0.5541081428527832,-8.069050788879395,51573.0,47366.0,50569.0,42950.0,0.6,0.0,0.5,-0.3331668972969055,0.6659674644470215,0.33675962686538696,0.036919623613357544,-0.028586357831954956,0.3827170133590698,-0.10632580518722534,0.7374176383018494,6.773323059082031,-2.9563100337982178,-0.635077178478241,-7.912058353424072,49803.0,43125.0,52111.0,44676.0,-0.3000025448675481,0.51961377298239,0.5,-0.29147571325302124,-0.5496171116828918,0.27021002769470215,-0.12421612441539764,0.069943867623806,0.4027261734008789,0.7844095826148987,-0.8312697410583496,3.635636806488037,0.3855818212032318,12.053954124450684,-3.786339282989502,55383.0,49567.0,51800.0,51205.0,-0.29999491024331576,-0.5196181808098181,0.5
1.729,TAKEOFF,abrupt,1.0,0.5765297412872314,-0.011949445120990276,0.27432048320770264,-0.04748903959989548,-0.008245572447776794,0.3817359209060669,0.21727560460567474,-1.3289111852645874,8.032317161560059,2.5880331993103027,1.509252667427063,-7.098788738250732,52058.0,47253.0,49864.0,43043.0,0.6,0.0,0.5,-0.3331668972969055,0.6659674644470215,0.33675962686538696,0.02871912345290184,-0.02630568854510784,0.37691599130630493,-0.05793491005897522,0.7216313481330872,6.5612311363220215,1.3146259784698486,0.18278911709785461,-8.01673412322998,50166.0,42975.0,51407.0,45171.0,-0.3000025448675481,0.51961377298239,0.5,-0.29147571325302124,-0.5496171116828918,0.27021002769470215,-0.10989688336849213,0.061615634709596634,0.3918682634830475,0.8996871709823608,-1.0862435102462769,3.5619492530822754,3.0641963481903076,11.154227256774902,-3.0352790355682373,56000.0,49542.0,50448.0,51687.0,-0.29999491024331576,-0.5196181808098181,0.5
1.749,TAKEOFF,abrupt,1.0,0.5765297412872314,-0.011949445120990276,0.27432048320770264,-0.016469834372401237,-0.01615329459309578,0.36344513297080994,0.3305809795856476,-1.5138474702835083,7.838796615600586,-3.55558180809021,4.021204948425293,-8.53323745727539,51973.0,47005.0,49751.0,43613.0,0.6,0.0,0.5,-0.3331668972969055,0.6659674644470215,0.33675962686538696,0.03060937114059925,-0.027392618358135223,0.36046501994132996,-0.050697747617959976,0.7377964854240417,6.421942234039307,3.3533592224121094,0.1940833330154419,-6.852167129516602,49952.0,44151.0,51476.0,44150.0,-0.3000025448675481,0.51961377298239,0.5,-0.30127957463264465,-0.5443223714828491,0.3107575476169586,-0.10608076304197311,0.04755621775984764,0.38549545407295227,1.0263036489486694,-1.3209128379821777,3.495826482772827,10.290623664855957,8.669363975524902,-1.8366717100143433,56301.0,50600.0,50063.0,50339.0,-0.29999491024331576,-0.5196181808098181,0.5
1.769,TAKEOFF,abrupt,1.0,0.5765297412872314,-0.011949445120990276,0.27432048320770264,-0.016469834372401237,-0.01615329459309578,0.36344513297080994,0.07471268624067307,-1.6852757930755615,7.679028511047363,-6.8048882484436035,9.74355697631836,-8.15761947631836,51386.0,47685.0,48888.0,44827.0,0.6,0.0,0.5,-0.3331668972969055,0.6659674644470215,0.33675962686538696,0.02093038707971573,-0.022796308621764183,0.35533636808395386,-0.025932500138878822,0.7643181085586548,6.350602626800537,0.39721623063087463,-2.029360055923462,-7.17044734954834,50093.0,43881.0,51193.0,44167.0,-0.3000025448675481,0.51961377298239,0.5,-0.30127957463264465,-0.5443223714828491,0.3107575476169586,-0.10165607929229736,0.04296695068478584,0.38672319054603577,1.264555811882019,-1.500544548034668,3.446866989135742,13.97672176361084,5.989742755889893,-2.0307836532592773,56687.0,50637.0,49619.0,49392.0,-0.29999491024331576,-0.5196181808098181,0.5
1.789,TAKEOFF,abrupt,1.0,0.5765297412872314,-0.011949445120990276,0.27432048320770264,-0.013430824503302574,0.007201109081506729,0.3687143921852112,-0.1929110586643219,-1.8905977010726929,7.572843551635742,-11.910970687866211,7.170895099639893,-8.28028678894043,50930.0,46249.0,50426.0,44193.0,0.6,0.0,0.5,-0.3328211307525635,0.6656573414802551,0.37526845932006836,0.0143802585080266,-0.01820879988372326,0.35060983896255493,0.018476881086826324,0.7858253121376038,6.202836990356445,0.8613938689231873,0.36606544256210327,-7.044999122619629,49551.0,44816.0,51628.0,43231.0,-0.3000025448675481,0.51961377298239,0.5,-0.30127957463264465,-0.5443223714828491,0.3107575476169586,-0.10633309185504913,0.04454566910862923,0.36538511514663696,1.457844614982605,-1.5379347801208496,3.3940606117248535,7.234295845031738,2.0358498096466064,-2.592540979385376,55820.0,50314.0,50995.0,50182.0,-0.29999491024331576,-0.5196181808098181,0.5
1.809,TAKEOFF,abrupt,1.0,0.5754498243331909,-0.009414002299308777,0.31296324729919434,-0.017811425030231476,0.011621142737567425,0.3657118082046509,-0.399039626121521,-2.0013773441314697,7.403198719024658,-11.863992691040039,4.020008563995361,-8.071227073669434,50962.0,45252.0,50235.0,45036.0,0.6,0.0,0.5,-0.3328211307525635,0.6656573414802551,0.37526845932006836,0.011853212490677834,-0.01849466934800148,0.3406735956668854,0.051973335444927216,0.7838080525398254,6.0624918937683105,0.4172857701778412,2.9785330295562744,-7.719256401062012,50218.0,44483.0,50302.0,45985.0,-0.3000025448675481,0.51961377298239,0.5,-0.30127957463264465,-0.5443223714828491,0.3107575476169586,-0.10066746920347214,0.039260074496269226,0.3525841236114502,1.5563580989837646,-1.5406804084777832,3.3027703762054443,-3.1365137100219727,-5.140847682952881,-3.6717963218688965,54541.0,50316.0,52408.0,50436.0,-0.29999491024331576,-0.5196181808098181,0.5
1.829,TAKEOFF,abrupt,1.0,0.5754498243331909,-0.009414002299308777,0.31296324729919434,-0.011092009022831917,0.013932697474956512,0.3587774634361267,-0.6604893207550049,-2.1062676906585693,7.229832649230957,-7.259423732757568,0.5966079235076904,-8.510009765625,50821.0,45683.0,50159.0,44734.0,0.6,0.0,0.5,-0.3328211307525635,0.6656573414802551,0.37526845932006836,0.020164011046290398,-0.026326315477490425,0.31690365076065063,0.14294585585594177,0.6567384600639343,5.9445271492004395,2.0287933349609375,3.2152099609375,-6.682826042175293,49785.0,44338.0,51793.0,44130.0,-0.3000025448675481,0.51961377298239,0.5,-0.30127957463264465,-0.5443223714828491,0.3107575476169586,-0.09642621874809265,0.035700976848602295,0.3392382860183716,1.4736169576644897,-1.4315688610076904,3.2221152782440186,-8.60266399383545,-6.617168426513672,-3.927351951599121,54403.0,50232.0,52594.0,50743.0,-0.29999491024331576,-0.5196181808098181,0.5
1.849,TAKEOFF,abrupt,1.0,0.5754498243331909,-0.009414002299308777,0.31296324729919434,-0.0024664499796926975,0.017880741506814957,0.3523787558078766,-0.8593718409538269,-2.125808000564575,7.054293155670166,-9.489497184753418,-3.181544542312622,-8.207440376281738,49507.0,46673.0,49943.0,45472.0,0.6,0.0,0.5,-0.3328211307525635,0.6656573414802551,0.37526845932006836,0.019006384536623955,-0.02561894990503788,0.30580663681030273,0.15467020869255066,0.6103827357292175,5.8242506980896,-0.16173547506332397,0.4133230745792389,-7.348278999328613,50429.0,43892.0,51042.0,44798.0,-0.3000025448675481,0.51961377298239,0.5,-0.31669366359710693,-0.5365273952484131,0.34631460905075073,-0.09138350188732147,0.03210294619202614,0.32996997237205505,1.281738042831421,-1.2964378595352173,3.1639187335968018,-11.028868675231934,-6.081887722015381,-3.554274082183838,54724.0,49707.0,52281.0,51177.0,-0.29999491024331576,-0.5196181808098181,0.5
1.869,TAKEOFF,abrupt,1.0,0.5754498243331909,-0.009414002299308777,0.31296324729919434,0.006636721082031727,0.022842170670628548,0.3465432822704315,-1.028771996498108,-2.0543317794799805,6.892160892486572,-2.4526240825653076,-8.62199592590332,-9.370380401611328,50121.0,47125.0,49306.0,44814.0,0.6,0.0,0.5,-0.3328211307525635,0.6656573414802551,0.37526845932006836,0.01706177368760109,-0.026319917291402817,0.29474809765815735,0.15850690007209778,0.5996564626693726,5.689521789550781,-1.174709677696228,0.3914929926395416,-6.429265975952148,49688.0,42960.0,51832.0,45608.0,-0.3000025448675481,0.51961377298239,0.5,-0.31669366359710693,-0.5365273952484131,0.34631460905075073,-0.0870678722858429,0.02835233509540558,0.31890392303466797,1.0524553060531616,-1.1937686204910278,3.095627784729004,-10.057772636413574,-1.1549108028411865,-2.355394124984741,55111.0,50139.0,51958.0,50755.0,-0.29999491024331576,-0.5196181808098181,0.5
1.889,TAKEOFF,abrupt,1.0,0.5754498243331909,-0.009414002299308777,0.31296324729919434,0.034394219517707825,0.02137143351137638,0.3362824320793152,-0.9640633463859558,-1.9787168502807617,6.666672229766846,4.2062225341796875,-8.923684120178223,-7.533286094665527,50428.0,46415.0,49929.0,43615.0,0.6,0.0,0.5,-0.32940128445625305,0.6629307270050049,0.40612512826919556,0.015169145539402962,-0.027030888944864273,0.2837558090686798,0.12007296085357666,0.5936894416809082,5.558984279632568,-2.421560287475586,-0.659547746181488,-6.607019424438477,49967.0,43847.0,51539.0,44957.0,-0.3000025448675481,0.51961377298239,0.5,-0.31669366359710693,-0.5365273952484131,0.34631460905075073,-0.07912507653236389,0.020479662343859673,0.29918262362480164,0.8805397152900696,-1.211024522781372,3.0156402587890625,-7.883388996124268,1.3698004484176636,-2.5886127948760986,55102.0,50350.0,52230.0,50968.0,-0.29999491024331576,-0.5196181808098181,0.5
1.909,TAKEOFF,abrupt,1.0,0.5827354192733765,-0.0054839360527694225,0.3505948781967163,0.034394219517707825,0.02137143351137638,0.3362824320793152,-0.9849526286125183,-1.7867794036865234,6.550820350646973,6.451692581176758,-13.453484535217285,-5.665235996246338,50385.0,46926.0,50139.0,42924.0,0.6,0.0,0.5,-0.32940128445625305,0.6629307270050049,0.40612512826919556,0.01330797653645277,-0.027633335441350937,0.2720874845981598,0.07210808992385864,0.5904127359390259,5.4335713386535645,-2.3185691833496094,-0.34672480821609497,-5.914172172546387,49922.0,43727.0,51656.0,45167.0,-0.3000025448675481,0.51961377298239,0.5,-0.31669366359710693,-0.5365273952484131,0.34631460905075073,-0.07499883323907852,0.017933020368218422,0.2904558479785919,0.7282031178474426,-1.2685359716415405,2.963411808013916,-5.766949653625488,4.284127712249756,-2.759596347808838,55535.0,49731.0,51743.0,51590.0,-0.29999491024331576,-0.5196181808098181,0.5
1.929,TAKEOFF,abrupt,1.0,0.5827354192733765,-0.0054839360527694225,0.3505948781967163,0.03637116402387619,0.053752534091472626,0.33126482367515564,-0.8965980410575867,-1.480250358581543,6.515669345855713,8.474993705749512,-13.566123008728027,-4.892820358276367,50576.0,46635.0,49740.0,42923.0,0.6,0.0,0.5,-0.32940128445625305,0.6629307270050049,0.40612512826919556,0.01306192483752966,-0.026666315272450447,0.2607392966747284,0.00048673219862394035,0.5649747848510742,5.328763484954834,-2.474071502685547,1.8068453073501587,-5.734140396118164,49896.0,44601.0,51643.0,44499.0,-0.3000025448675481,0.51961377298239,0.5,-0.31669366359710693,-0.5365273952484131,0.34631460905075073,-0.07065743952989578,0.01585780829191208,0.2822400629520416,0.6218938827514648,-1.3740981817245483,2.921057939529419,-2.9587299823760986,5.640321731567383,-1.5627390146255493,55688.0,50760.0,51711.0,50502.0,-0.29999491024331576,-0.5196181808098181,0.5
1.949,TAKEOFF,abrupt,1.0,0.5827354192733765,-0.0054839360527694225,0.3505948781967163,0.03637116402387619,0.053752534091472626,0.33126482367515564,-0.7756086587905884,-1.1771053075790405,6.490453720092773,7.509514808654785,-14.637720108032227,-3.2941133975982666,50310.0,46503.0,49969.0,42778.0,0.6,0.0,0.5,-0.32940128445625305,0.6629307270050049,0.40612512826919556,0.011218647472560406,-0.02690025232732296,0.2500615417957306,-0.04955027997493744,0.5422751307487488,5.212989807128906,-3.894613027572632,1.9906501770019531,-5.637116432189941,50591.0,43762.0,51503.0,46033.0,-0.3000025448675481,0.51961377298239,0.5,-0.31636789441108704,-0.540072500705719,0.3756435215473175,-0.013240845873951912,-0.017738142982125282,0.2749744951725006,0.8496525883674622,-1.8172661066055298,2.914184808731079,4.719736099243164,3.3427469730377197,1.1758882999420166,57208.0,49914.0,50091.0,50970.0,-0.29999491024331576,-0.5196181808098181,0.5
1.969,TAKEOFF,abrupt,1.0,0.5827354192733765,-0.0054839360527694225,0.3505948781967163,0.03775410354137421,0.06169171258807182,0.3256523907184601,-0.6193272471427917,-0.9035513997077942,6.4240827560424805,7.5054473876953125,-12.84434986114502,-3.3225278854370117,49961.0,46614.0,50323.0,42334.0,0.6,0.0,0.5,-0.32940128445625305,0.6629307270050049,0.40612512826919556,0.023507021367549896,-0.034879330545663834,0.22786273062229156,-0.0463998019695282,0.4135872721672058,5.073525905609131,-3.591636896133423,-1.1385607719421387,-4.753403186798096,50633.0,43564.0,51607.0,46357.0,-0.3000025448675481,0.51961377298239,0.5,-0.31636789441108704,-0.540072500705719,0.3756435215473175,-0.011426846496760845,0.003906498197466135,0.25916385650634766,0.793262243270874,-1.8529691696166992,2.939257860183716,7.422384262084961,1.8500659465789795,0.9005621671676636,57289.0,50671.0,50275.0,50504.0,-0.29999491024331576,-0.5196181808098181,0.5
1.989,TAKEOFF,abrupt,1.0,0.5827354192733765,-0.0054839360527694225,0.3505948781967163,0.08738009631633759,0.05915312096476555,0.30699247121810913,-0.38351669907569885,-0.9034885168075562,6.29153299331665,8.391057014465332,-8.608237266540527,-3.01828932762146,51040.0,45616.0,49205.0,43563.0,0.6,0.0,0.5,-0.32513219118118286,0.658984363079071,0.4294406473636627,0.024327082559466362,-0.03435486555099487,0.209058940410614,-0.11790736019611359,0.4110356271266937,4.913985252380371,-3.306398868560791,-1.8588426113128662,-4.6981520652771,50428.0,45312.0,51920.0,45164.0,-0.3000025448675481,0.51961377298239,0.5,-0.31636789441108704,-0.540072500705719,0.3756435215473175,-0.005286651197820902,0.0015327027067542076,0.24833688139915466,0.9571680426597595,-1.857290506362915,2.963165760040283,4.234401226043701,-3.3330752849578857,0.7033495306968689,56511.0,50541.0,51417.0,50745.0,-0.29999491024331576,-0.5196181808098181,0.5
2.009,TAKEOFF,abrupt,1.0,0.5935546159744263,0.0027528353966772556,0.38353440165519714,0.08738009631633759,0.05915312096476555,0.30699247121810913,-0.18221716582775116,-0.7863801717758179,6.163969993591309,7.132212162017822,-9.568158149719238,-1.842414379119873,51030.0,45466.0,49233.0,43624.0,0.6,0.0,0.5,-0.32513219118118286,0.658984363079071,0.4294406473636627,0.022406872361898422,-0.03326458856463432,0.20064768195152283,-0.21351033449172974,0.5113590955734253,4.900299072265625,-4.804772853851318,-2.8894667625427246,-4.09460973739624,50477.0,44532.0,51889.0,45752.0,-0.3000025448675481,0.51961377298239,0.5,-0.31636789441108704,-0.540072500705719,0.3756435215473175,0.0008526199380867183,-0.0013233445351943374,0.23799313604831696,1.0404009819030762,-1.7262012958526611,2.9829394817352295,1.2308775186538696,-11.167102813720703,2.219695806503296,56294.0,51086.0,52017.0,50104.0,-0.29999491024331576,-0.5196181808098181,0.5
2.029,TAKEOFF,abrupt,1.0,0.5935546159744263,0.0027528353966772556,0.38353440165519714,0.09203536808490753,0.06072750315070152,0.28508368134498596,-0.07624612748622894,-0.5925447344779968,6.13992977142334,4.146024703979492,-10.68062686920166,-0.045669227838516235,50610.0,45421.0,49873.0,43488.0,0.6,0.0,0.5,-0.32513219118118286,0.658984363079071,0.4294406473636627,0.018765626475214958,-0.03152887895703316,0.196024551987648,-0.2741782069206238,0.5926929116249084,4.874415397644043,0.7345985770225525,-8.416696548461914,-5.47044563293457,50282.0,45211.0,51896.0,44942.0,-0.3000025448675481,0.51961377298239,0.5,-0.31636789441108704,-0.540072500705719,0.3756435215473175,0.006177273113280535,-0.023336248472332954,0.2409084439277649,1.2164138555526733,-1.4436945915222168,3.0166985988616943,1.6912009716033936,-18.35874366760254,3.913088798522949,56487.0,51427.0,51706.0,49160.0,-0.29999491024331576,-0.5196181808098181,0.5
2.049,TAKEOFF,abrupt,1.0,0.5935546159744263,0.0027528353966772556,0.38353440165519714,0.09203536808490753,0.06072750315070152,0.28508368134498596,-0.1422175168991089,-0.2595691978931427,6.220523357391357,1.588293433189392,-15.096830368041992,0.0857674703001976,50217.0,45938.0,50379.0,42875.0,0.6,0.0,0.5,-0.32513219118118286,0.658984363079071,0.4294406473636627,0.014448483474552631,-0.02827092818915844,0.1929042488336563,-0.2579123079776764,0.714352548122406,4.775445461273193,-1.3398116827011108,-4.348169326782227,-4.482111930847168,50663.0,45288.0,51769.0,45205.0,-0.3000025448675481,0.51961377298239,0.5,-0.3217938244342804,-0.5363199710845947,0.39945188164711,-0.002733697649091482,-0.014439202845096588,0.22261089086532593,1.14801824092865,-1.00066077709198,3.116875171661377,-1.1077508926391602,-15.582018852233887,3.7471625804901123,56435.0,50975.0,52208.0,49941.0,-0.29999491024331576,-0.5196181808098181,0.5
2.069,TAKEOFF,abrupt,1.0,0.5935546159744263,0.0027528353966772556,0.38353440165519714,0.08033864945173264,0.07684925943613052,0.268419474363327,-0.0884203389286995,0.09494496881961823,6.2182936668396,0.7057389616966248,-22.358861923217773,-0.6582427620887756,49718.0,45777.0,51103.0,43226.0,0.6,0.0,0.5,-0.32513219118118286,0.658984363079071,0.4294406473636627,0.02072383090853691,-0.03433283790946007,0.17846344411373138,-0.16971521079540253,0.7372974157333374,4.619603157043457,1.8384159803390503,-0.8388125896453857,-3.178691864013672,50153.0,44354.0,52332.0,46116.0,-0.3000025448675481,0.51961377298239,0.5,-0.3217938244342804,-0.5363199710845947,0.39945188164711,0.0005007314612157643,-0.017983566969633102,0.21255038678646088,1.0857001543045044,-0.7652069926261902,3.1937601566314697,-6.791336536407471,-6.882806777954102,3.9648330211639404,56557.0,49987.0,52262.0,51011.0,-0.29999491024331576,-0.5196181808098181,0.5
2.089,TAKEOFF,abrupt,1.0,0.5935546159744263,0.0027528353966772556,0.38353440165519714,0.08034402132034302,0.0771900936961174,0.25742676854133606,-0.10740945488214493,0.5985037684440613,6.290203094482422,3.22760009765625,-21.152812957763672,-0.05021850764751434,50117.0,46219.0,50817.0,42812.0,0.6,0.0,0.5,-0.32541242241859436,0.6579761505126953,0.4493650794029236,0.0183243490755558,-0.03391179069876671,0.17156673967838287,-0.19406098127365112,0.761799693107605,4.550776481628418,-1.516012191772461,-3.6650054454803467,-3.695624589920044,50697.0,45484.0,51969.0,45398.0,-0.3000025448675481,0.51961377298239,0.5,-0.3217938244342804,-0.5363199710845947,0.39945188164711,5.265839718049392e-05,-0.02635662816464901,0.2046075016260147,0.9538918137550354,-0.621131420135498,3.240178346633911,-8.943191528320312,-3.222180128097534,2.434324026107788,56878.0,50344.0,51827.0,50894.0,-0.29999491024331576,-0.5196181808098181,0.5
2.109,TAKEOFF,abrupt,1.0,0.5989495515823364,0.012625389732420444,0.40872684121131897,0.07222496718168259,0.08209647983312607,0.24277301132678986,-0.011482907459139824,1.01499605178833,6.351778984069824,7.291079044342041,-16.118030548095703,-0.020069053396582603,50386.0,46673.0,50780.0,42443.0,0.6,0.0,0.5,-0.32541242241859436,0.6579761505126953,0.4493650794029236,0.01965649053454399,-0.03390905633568764,0.15831534564495087,-0.19740688800811768,0.8127539157867432,4.405270099639893,0.7069477438926697,-5.40876579284668,-3.888031005859375,50697.0,45484.0,51969.0,45398.0,-0.3000025448675481,0.51961377298239,0.5,-0.3217938244342804,-0.5363199710845947,0.39945188164711,0.0017973482608795166,-0.030079331248998642,0.19730639457702637,0.7370814085006714,-0.59920734167099,3.2617177963256836,-12.713939666748047,0.16452497243881226,2.057886838912964,56623.0,50091.0,52230.0,51210.0,-0.29999491024331576,-0.5196181808098181,0.5
2.129,TAKEOFF,abrupt,1.0,0.5989495515823364,0.012625389732420444,0.40872684121131897,0.0670887902379036,0.08244751393795013,0.2292879968881607,0.31814855337142944,1.5471006631851196,6.402134895324707,11.907767295837402,-8.893508911132812,0.522892951965332,50257.0,45804.0,51150.0,43563.0,0.6,0.0,0.5,-0.32541242241859436,0.6579761505126953,0.4493650794029236,0.017079586163163185,-0.031688954681158066,0.15000638365745544,-0.21541915833950043,0.9090349674224854,4.266777038574219,-2.68624210357666,-0.3616531193256378,-2.143601655960083,50284.0,46007.0,52513.0,45176.0,-0.3000025448675481,0.51961377298239,0.5,-0.3217938244342804,-0.5363199710845947,0.39945188164711,0.0039035778027027845,-0.03220607340335846,0.19038137793540955,0.4914063513278961,-0.5967150926589966,3.2997913360595703,-11.146471977233887,-1.4409476518630981,1.943271517753601,56360.0,50153.0,52656.0,51215.0,-0.29999491024331576,-0.5196181808098181,0.5
2.149,TAKEOFF,abrupt,1.0,0.5989495515823364,0.012625389732420444,0.40872684121131897,0.036109745502471924,0.05870578810572624,0.22345620393753052,0.5714100003242493,1.706634283065796,6.445652484893799,13.91341781616211,-4.409379005432129,1.1933891773223877,51352.0,47697.0,50060.0,41096.0,0.6,0.0,0.5,-0.32541242241859436,0.6579761505126953,0.4493650794029236,0.01409640908241272,-0.031219495460391045,0.14383618533611298,-0.23934689164161682,0.9324049949645996,4.239526271820068,-4.2487077713012695,0.5658441185951233,-3.0077052116394043,50586.0,44540.0,52243.0,46723.0,-0.3000025448675481,0.51961377298239,0.5,-0.3224804103374481,-0.5404415726661682,0.4197380244731903,0.005957915913313627,-0.03354769945144653,0.18440742790699005,0.2652534544467926,-0.5736790299415588,3.3359246253967285,-10.138092994689941,-2.8657820224761963,1.289976954460144,56561.0,50381.0,52444.0,51079.0,-0.29999491024331576,-0.5196181808098181,0.5
2.169,TAKEOFF,abrupt,1.0,0.5989495515823364,0.012625389732420444,0.40872684121131897,0.03136785700917244,0.05570268630981445,0.2121753841638565,0.8702585101127625,1.7727173566818237,6.507660388946533,14.398200988769531,1.7555370330810547,0.2431529015302658,51661.0,46469.0,50688.0,41617.0,0.6,0.0,0.5,-0.32541242241859436,0.6579761505126953,0.4493650794029236,0.0002930019691120833,-0.027240503579378128,0.14583389461040497,-0.401885986328125,1.0364607572555542,4.128539085388184,-5.730878829956055,1.530673623085022,-3.28330659866333,50586.0,44540.0,52243.0,46723.0,-0.3000025448675481,0.51961377298239,0.5,-0.3224804103374481,-0.5404415726661682,0.4197380244731903,0.007861701771616936,-0.034165333956480026,0.17923890054225922,0.08329350501298904,-0.5006887912750244,3.363619804382324,-8.172106742858887,-3.2533013820648193,1.5851062536239624,56817.0,50115.0,52274.0,51323.0,-0.29999491024331576,-0.5196181808098181,0.5
2.189,TAKEOFF,abrupt,1.0,0.5989495515823364,0.012625389732420444,0.40872684121131897,0.026673810556530952,0.05241667479276657,0.20138154923915863,1.1366138458251953,1.7029273509979248,6.540913105010986,10.346565246582031,5.7095046043396,-0.23342286050319672,51643.0,47988.0,50713.0,39899.0,0.6,0.0,0.5,-0.3248201906681061,0.6552973985671997,0.4646507799625397,-0.003225708147510886,-0.026232227683067322,0.13984403014183044,-0.515569269657135,1.0183895826339722,3.9864721298217773,-5.748529434204102,2.3575150966644287,-3.3468267917633057,50964.0,45951.0,51874.0,45463.0,-0.3000025448675481,0.51961377298239,0.5,-0.3224804103374481,-0.5404415726661682,0.4197380244731903,0.00011314431321807206,-0.021226465702056885,0.17375539243221283,-0.16298535466194153,-0.3484826385974884,3.409590244293213,-5.788534641265869,-6.750343322753906,0.8757826685905457,56355.0,50534.0,52872.0,51033.0,-0.29999491024331576,-0.5196181808098181,0.5
2.209,TAKEOFF,abrupt,1.0,0.5989635586738586,0.013959895819425583,0.4315211772918701,0.022243663668632507,0.04844574257731438,0.1927574872970581,1.3304831981658936,1.57492995262146,6.566249847412109,4.890929698944092,11.522687911987305,0.23703579604625702,52238.0,44695.0,50365.0,43778.0,0.6,0.0,0.5,-0.3248201906681061,0.6552973985671997,0.4646507799625397,-0.008751444518566132,-0.02060745842754841,0.13083116710186005,-0.5593786239624023,0.9752905368804932,3.9141297340393066,-0.8152875304222107,5.667109966278076,-3.8125712871551514,49929.0,44322.0,52900.0,47038.0,-0.3000025448675481,0.51961377298239,0.5,-0.3224804103374481,-0.5404415726661682,0.4197380244731903,0.001123543013818562,-0.020532986149191856,0.16885709762573242,-0.261427104473114,-0.20141135156154633,3.42879319190979,-4.028901100158691,-6.953888416290283,1.5978833436965942,56470.0,50999.0,52911.0,50495.0,-0.29999491024331576,-0.5196181808098181,0.5
2.231,TAKEOFF,abrupt,1.0,0.5989635586738586,0.013959895819425583,0.4315211772918701,0.017439547926187515,0.04437185451388359,0.187099888920784,1.3807504177093506,1.3417776823043823,6.570822715759277,-1.830756664276123,10.159515380859375,-0.7544106245040894,51157.0,46336.0,50672.0,43134.0,0.6,0.0,0.5,-0.3248201906681061,0.6552973985671997,0.4646507799625397,-0.01217169314622879,-0.01895713433623314,0.12626498937606812,-0.6333004236221313,0.887626588344574,3.7761855125427246,-1.609562873840332,6.95288610458374,-3.2010035514831543,50399.0,45558.0,52318.0,46239.0,-0.3000025448675481,0.51961377298239,0.5,-0.3224804103374481,-0.5404415726661682,0.4197380244731903,0.0016273007495328784,-0.01957070454955101,0.16445845365524292,-0.32019275426864624,-0.06976832449436188,3.451716184616089,-4.361796855926514,-5.225324630737305,1.4399309158325195,56457.0,50576.0,52975.0,50954.0,-0.29999491024331576,-0.5196181808098181,0.5
2.249,TAKEOFF,abrupt,1.0,0.5989635586738586,0.013959895819425583,0.4315211772918701,0.03135386109352112,0.03603828325867653,0.17376366257667542,1.3442133665084839,0.960495114326477,6.520176887512207,-4.616405487060547,11.318389892578125,-0.36599865555763245,51544.0,45689.0,50490.0,44099.0,0.6,0.0,0.5,-0.3248201906681061,0.6552973985671997,0.4646507799625397,-0.01771065779030323,-0.013166848570108414,0.12094692885875702,-0.7108167409896851,0.8645907044410706,3.824799060821533,2.8422083854675293,7.751823425292969,-2.811537742614746,50399.0,45558.0,52318.0,46239.0,-0.3000025448675481,0.51961377298239,0.5,-0.3242424428462982,-0.5414857268333435,0.43601033091545105,0.00039241285412572324,-0.024703044444322586,0.15470634400844574,-0.32854944467544556,0.027954092249274254,3.4377810955047607,-3.961397886276245,-1.5589300394058228,0.3587806522846222,56547.0,50077.0,52950.0,51761.0,-0.29999491024331576,-0.5196181808098181,0.5
2.269,TAKEOFF,abrupt,1.0,0.5989635586738586,0.013959895819425583,0.4315211772918701,0.02851938270032406,0.031202349811792374,0.16470065712928772,1.2284365892410278,0.757973849773407,6.517490386962891,-3.9089577198028564,5.3339738845825195,-0.5362460017204285,51716.0,46108.0,50434.0,43745.0,0.6,0.0,0.5,-0.3248201906681061,0.6552973985671997,0.4646507799625397,-0.03944847732782364,-0.0006626404356211424,0.12934015691280365,-0.6562402248382568,0.6832116842269897,3.7629244327545166,2.94529390335083,7.521569728851318,-3.142300844192505,50743.0,44479.0,52268.0,46968.0,-0.3000025448675481,0.51961377298239,0.5,-0.3242424428462982,-0.5414857268333435,0.43601033091545105,0.00020840534125454724,-0.02354440465569496,0.1510893851518631,-0.39904430508613586,0.03942565247416496,3.438112735748291,-4.062184810638428,-0.6344560980796814,-0.06042001396417618,56775.0,50280.0,52696.0,51619.0,-0.29999491024331576,-0.5196181808098181,0.5
2.289,TAKEOFF,abrupt,1.0,0.5989635586738586,0.013959895819425583,0.4315211772918701,0.03589571267366409,0.02511465921998024,0.1534370630979538,1.1095616817474365,0.6239675283432007,6.4332380294799805,-8.550871849060059,-0.7860117554664612,-0.1592135727405548,51290.0,45846.0,50987.0,44347.0,0.6,0.0,0.5,-0.3298850953578949,0.656882107257843,0.4784470796585083,-0.04205133393406868,0.0014351306017488241,0.12507085502147675,-0.5927947759628296,0.5205675959587097,3.688524007797241,4.454403400421143,8.187833786010742,-3.597407102584839,49953.0,44640.0,52515.0,46658.0,-0.3000025448675481,0.51961377298239,0.5,-0.3242424428462982,-0.5414857268333435,0.43601033091545105,0.028280068188905716,-0.04009396582841873,0.15309728682041168,-0.3265899121761322,-0.1856590360403061,3.4403531551361084,-4.794971942901611,-1.1624820232391357,0.7121332883834839,57221.0,50507.0,52072.0,51136.0,-0.29999491024331576,-0.5196181808098181,0.5
2.31,TAKEOFF,abrupt,1.0,0.6083102226257324,0.01918213441967964,0.4475914537906647,0.03425468131899834,0.02107987366616726,0.14589661359786987,0.7631750106811523,0.7562560439109802,6.471670150756836,-6.072106838226318,-10.3878755569458,-2.1127140522003174,51176.0,46781.0,51811.0,42557.0,0.6,0.0,0.5,-0.3298850953578949,0.656882107257843,0.4784470796585083,-0.046646881848573685,0.0033782669343054295,0.12543940544128418,-0.564117431640625,0.47577351331710815,3.6922335624694824,7.099873065948486,11.43471908569336,-3.2636804580688477,49779.0,45175.0,52657.0,46187.0,-0.3000025448675481,0.51961377298239,0.5,-0.3242424428462982,-0.5414857268333435,0.43601033091545105,0.02784605324268341,-0.03616366535425186,0.1552722454071045,-0.449323445558548,-0.1721779704093933,3.4093194007873535,-4.940096855163574,-1.146740198135376,-0.5365562438964844,56992.0,50401.0,52054.0,51223.0,-0.29999491024331576,-0.5196181808098181,0.5
2.329,TAKEOFF,abrupt,1.0,0.6083102226257324,0.01918213441967964,0.4475914537906647,0.010343344882130623,0.027361031621694565,0.14312899112701416,0.7718460559844971,0.957768440246582,6.44172477722168,-1.085046648979187,-14.182068824768066,-1.9426780939102173,50468.0,47891.0,51884.0,42076.0,0.6,0.0,0.5,-0.3298850953578949,0.656882107257843,0.4784470796585083,-0.048290643841028214,0.0051880935207009315,0.12154177576303482,-0.5120667815208435,0.35172098875045776,3.715276002883911,7.291360855102539,12.098012924194336,-3.9032816886901855,51085.0,44982.0,51293.0,46311.0,-0.3000025448675481,0.51961377298239,0.5,-0.3242424428462982,-0.5414857268333435,0.43601033091545105,0.028314342722296715,-0.03454418107867241,0.15093854069709778,-0.5658513903617859,-0.1503588855266571,3.396594285964966,-8.500239372253418,-3.220801830291748,-0.8193952441215515,56642.0,50288.0,52491.0,51377.0,-0.29999491024331576,-0.5196181808098181,0.5
2.349,TAKEOFF,abrupt,1.0,0.6083102226257324,0.01918213441967964,0.4475914537906647,0.0060241022147238255,0.0278881024569273,0.13752226531505585,0.7058249711990356,1.3697692155838013,6.418766975402832,5.55297327041626,-17.23749351501465,-0.6366342902183533,51021.0,48285.0,51487.0,41514.0,0.6,0.0,0.5,-0.3298850953578949,0.656882107257843,0.4784470796585083,-0.055267151445150375,0.01245766133069992,0.12347941100597382,-0.3803221881389618,0.13526850938796997,3.637042284011841,3.750279188156128,11.033561706542969,-3.3523406982421875,50890.0,44673.0,51322.0,46379.0,-0.3000025448675481,0.51961377298239,0.5,-0.3171622157096863,-0.5478953123092651,0.4530293047428131,0.03295694664120674,-0.034461963921785355,0.1436498910188675,-0.6964250206947327,-0.0955708771944046,3.3820128440856934,-6.724062919616699,-10.554938316345215,-0.4337954819202423,56234.0,51384.0,53141.0,50360.0,-0.29999491024331576,-0.5196181808098181,0.5
2.369,TAKEOFF,abrupt,1.0,0.6083102226257324,0.01918213441967964,0.4475914537906647,0.002039416693150997,0.025117751210927963,0.13096340000629425,0.823584794998169,1.6649450063705444,6.394282817840576,12.182286262512207,-11.745635032653809,-1.8003737926483154,51269.0,49076.0,51342.0,40489.0,0.6,0.0,0.5,-0.3298850953578949,0.656882107257843,0.4784470796585083,-0.05254242941737175,0.016676045954227448,0.11735040694475174,-0.30724942684173584,-0.12588214874267578,3.60726261138916,6.146824359893799,9.699549674987793,-4.232556343078613,51476.0,45131.0,50780.0,46075.0,-0.3000025448675481,0.51961377298239,0.5,-0.3171622157096863,-0.5478953123092651,0.4530293047428131,0.022760778665542603,-0.014330171048641205,0.13280953466892242,-0.995473325252533,0.16037802398204803,3.4036343097686768,-6.1702141761779785,-12.386248588562012,-1.6746348142623901,56059.0,51106.0,53484.0,51047.0,-0.29999491024331576,-0.5196181808098181,0.5
2.39,TAKEOFF,abrupt,1.0,0.6083102226257324,0.01918213441967964,0.4475914537906647,0.01598265767097473,0.016225440427660942,0.12602007389068604,1.0739765167236328,1.6648579835891724,6.271137714385986,11.418354988098145,-2.8706278800964355,-2.099618911743164,51750.0,47961.0,50817.0,42290.0,0.6,0.0,0.5,-0.335019588470459,0.6590206027030945,0.49113231897354126,-0.050866033881902695,0.01773155853152275,0.10787881165742874,-0.18774069845676422,-0.35786867141723633,3.6756601333618164,8.617693901062012,9.24179458618164,-4.901337146759033,49901.0,45232.0,52456.0,46158.0,-0.3000025448675481,0.51961377298239,0.5,-0.3171622157096863,-0.5478953123092651,0.4530293047428131,0.02592548541724682,-0.014007440768182278,0.12937723100185394,-1.1096837520599365,0.34755373001098633,3.3831353187561035,-6.707719326019287,-6.306076526641846,-1.9213186502456665,56274.0,50163.0,53237.0,52003.0,-0.29999491024331576,-0.5196181808098181,0.5
2.409,TAKEOFF,abrupt,1.0,0.6113554239273071,0.017340220510959625,0.4615628719329834,0.0066305059008300304,0.008886831812560558,0.12300294637680054,1.2679154872894287,1.7126860618591309,6.141632556915283,6.160417079925537,6.805632591247559,-1.7003358602523804,51941.0,48110.0,50560.0,42212.0,0.6,0.0,0.5,-0.335019588470459,0.6590206027030945,0.49113231897354126,-0.05082930251955986,0.020894426852464676,0.10573085397481918,-0.04656233265995979,-0.5120947957038879,3.5842671394348145,5.837092399597168,2.333387613296509,-4.664383888244629,51555.0,45041.0,50694.0,46495.0,-0.3000025448675481,0.51961377298239,0.5,-0.3171622157096863,-0.5478953123092651,0.4530293047428131,0.01998344622552395,0.0001168867529486306,0.12110619992017746,-1.3398224115371704,0.5388745665550232,3.3753809928894043,-5.483280181884766,-9.428722381591797,-1.6672722101211548,56565.0,49943.0,53076.0,52386.0,-0.29999491024331576,-0.5196181808098181,0.5
2.429,TAKEOFF,abrupt,1.0,0.6113554239273071,0.017340220510959625,0.4615628719329834,-0.0013442650670185685,0.004128523636609316,0.12130849063396454,1.3890794515609741,1.5635478496551514,6.052607536315918,3.06976580619812,10.154568672180176,-1.1110559701919556,51621.0,46848.0,50983.0,43585.0,0.6,0.0,0.5,-0.335019588470459,0.6590206027030945,0.49113231897354126,-0.04901410639286041,0.021028246730566025,0.10090941190719604,0.12960809469223022,-0.6439406871795654,3.5831801891326904,9.028696060180664,5.736639976501465,-4.493055820465088,49649.0,45649.0,52718.0,45792.0,-0.3000025448675481,0.51961377298239,0.5,-0.3171622157096863,-0.5478953123092651,0.4530293047428131,0.01699983887374401,0.007679122034460306,0.11689481884241104,-1.4501113891601562,0.6773513555526733,3.3503916263580322,-0.6408337354660034,-1.1409639120101929,-1.8307026624679565,56502.0,50402.0,53287.0,52024.0,-0.29999491024331576,-0.5196181808098181,0.5
2.449,TAKEOFF,abrupt,1.0,0.6113554239273071,0.017340220510959625,0.4615628719329834,-0.003996015060693026,-1.9795703337877057e-05,0.11220061033964157,1.3020962476730347,1.3327680826187134,6.027346611022949,-3.0381529331207275,13.320788383483887,0.2965801954269409,52289.0,46980.0,50464.0,43595.0,0.6,0.0,0.5,-0.335019588470459,0.6590206027030945,0.49113231897354126,-0.04433926194906235,0.018597247079014778,0.09825710952281952,0.291177898645401,-0.7346866726875305,3.5777974128723145,5.941154956817627,-1.713392972946167,-4.86365270614624,49649.0,45649.0,52718.0,45792.0,-0.3000025448675481,0.51961377298239,0.5,-0.31738653779029846,-0.5429210662841797,0.4633479118347168,0.014389540068805218,0.01247310359030962,0.11543223261833191,-1.4376577138900757,0.7113904356956482,3.3131959438323975,3.6900243759155273,-1.3024967908859253,-2.4015634059906006,56824.0,50904.0,52890.0,51605.0,-0.29999491024331576,-0.5196181808098181,0.5
2.469,TAKEOFF,abrupt,1.0,0.6113554239273071,0.017340220510959625,0.4615628719329834,-0.00846077874302864,0.005100022070109844,0.11371412873268127,1.254679560661316,1.060476303100586,5.977686405181885,-4.970705509185791,10.704087257385254,0.3771556317806244,51717.0,46083.0,51058.0,44433.0,0.6,0.0,0.5,-0.339138388633728,0.6608113646507263,0.5015109777450562,-0.040216390043497086,0.016112707555294037,0.09275336563587189,0.44395461678504944,-0.7514121532440186,3.4733710289001465,10.007824897766113,2.5325136184692383,-5.527978420257568,50347.0,45304.0,52053.0,46409.0,-0.3000025448675481,0.51961377298239,0.5,-0.31738653779029846,-0.5429210662841797,0.4633479118347168,0.011685678735375404,0.01713971234858036,0.1135348305106163,-1.318418025970459,0.7151223421096802,3.2718372344970703,9.877676963806152,0.2947012186050415,-2.327894449234009,56955.0,50931.0,52698.0,51667.0,-0.29999491024331576,-0.5196181808098181,0.5
2.489,TAKEOFF,abrupt,1.0,0.6113554239273071,0.017340220510959625,0.4615628719329834,-0.011402325704693794,-0.0009508957737125456,0.10813669860363007,1.203513741493225,0.9059159159660339,5.929676055908203,-6.659371376037598,11.056222915649414,1.1131244897842407,51206.0,46614.0,51617.0,44023.0,0.6,0.0,0.5,-0.339138388633728,0.6608113646507263,0.5015109777450562,-0.03759298101067543,0.014629307202994823,0.0881631001830101,0.6480039358139038,-0.8197606801986694,3.444911479949951,5.35306453704834,2.728400707244873,-4.572451114654541,50725.0,45976.0,51886.0,45899.0,-0.3000025448675481,0.51961377298239,0.5,-0.31738653779029846,-0.5429210662841797,0.4633479118347168,0.009029421955347061,0.021285977214574814,0.11097871512174606,-1.116775393486023,0.7068870067596436,3.2216296195983887,11.869462013244629,-0.6670193672180176,-2.6974997520446777,56958.0,51569.0,52644.0,51160.0,-0.29999491024331576,-0.5196181808098181,0.5
2.509,TAKEOFF,abrupt,1.0,0.6121479868888855,0.018840190023183823,0.47326424717903137,-0.014293868094682693,-0.005558542907238007,0.10071597993373871,1.0162521600723267,0.7334107756614685,5.947072505950928,-2.841163158416748,9.464999198913574,0.9515403509140015,52441.0,47214.0,50533.0,43422.0,0.6,0.0,0.5,-0.339138388633728,0.6608113646507263,0.5015109777450562,-0.030717169865965843,0.009017649106681347,0.08067300170660019,0.7700985670089722,-0.8756012320518494,3.351351737976074,2.1335349082946777,1.6534143686294556,-5.079239368438721,49941.0,45256.0,52656.0,46663.0,-0.3000025448675481,0.51961377298239,0.5,-0.31738653779029846,-0.5429210662841797,0.4633479118347168,0.006428321823477745,0.024731766432523727,0.10873356461524963,-0.8860701322555542,0.718231201171875,3.1545493602752686,10.206090927124023,0.012104067951440811,-3.934657573699951,56392.0,51374.0,53280.0,51444.0,-0.29999491024331576,-0.5196181808098181,0.5
2.529,TAKEOFF,abrupt,1.0,0.6121479868888855,0.018840190023183823,0.47326424717903137,-0.03055637516081333,0.0016125247348099947,0.09782883524894714,0.8401914238929749,0.6178226470947266,6.01662540435791,-1.873226284980774,0.9524416923522949,1.0618033409118652,51637.0,47710.0,51369.0,42497.0,0.6,0.0,0.5,-0.339138388633728,0.6608113646507263,0.5015109777450562,-0.027610115706920624,0.006557264365255833,0.07650572806596756,0.8498765826225281,-0.9389500021934509,3.3298120498657227,-1.3324798345565796,2.3882381916046143,-3.9363274574279785,50368.0,45199.0,52665.0,46690.0,-0.3000025448675481,0.51961377298239,0.5,-0.31738653779029846,-0.5429210662841797,0.4633479118347168,-0.03417590260505676,0.028689133003354073,0.11026748269796371,-0.7385814785957336,1.0568817853927612,3.078249216079712,7.004373073577881,0.12601342797279358,-3.7356083393096924,56411.0,51738.0,53073.0,51049.0,-0.29999491024331576,-0.5196181808098181,0.5
2.549,TAKEOFF,abrupt,1.0,0.6121479868888855,0.018840190023183823,0.47326424717903137,-0.03055637516081333,0.0016125247348099947,0.09782883524894714,0.7783432006835938,0.5848429799079895,6.092167854309082,2.688108444213867,-1.4994655847549438,-0.3274056017398834,52160.0,46596.0,51807.0,42572.0,0.6,0.0,0.5,-0.339138388633728,0.6608113646507263,0.5015109777450562,-0.018431512638926506,-0.000994501868262887,0.06805197894573212,0.7982553243637085,-0.9621842503547668,3.258080005645752,-3.4908668994903564,3.4179444313049316,-3.80344295501709,50696.0,46077.0,52152.0,46247.0,-0.3000025448675481,0.51961377298239,0.5,-0.3251441419124603,-0.5421836972236633,0.4754830598831177,-0.04012804850935936,0.03161891549825668,0.10846679657697678,-0.598328709602356,1.0841926336288452,2.9993817806243896,4.611937046051025,3.010629653930664,-3.4583685398101807,56463.0,51133.0,53071.0,51765.0,-0.29999491024331576,-0.5196181808098181,0.5
