timestamp_sec,flight_state,fault_type,fault_motor_health,cf1_X,cf1_Y,cf1_Z,cf1_VelX,cf1_VelY,cf1_VelZ,cf1_Roll,cf1_Pitch,cf1_Yaw,cf1_GyroX,cf1_GyroY,cf1_GyroZ,cf1_Motor1,cf1_Motor2,cf1_Motor3,cf1_Motor4,cf1_targ_x,cf1_targ_y,cf1_targ_z,cf2_X,cf2_Y,cf2_Z,cf2_VelX,cf2_VelY,cf2_VelZ,cf2_Roll,cf2_Pitch,cf2_Yaw,cf2_GyroX,cf2_GyroY,cf2_GyroZ,cf2_Motor1,cf2_Motor2,cf2_Motor3,cf2_Motor4,cf2_targ_x,cf2_targ_y,cf2_targ_z,cf3_X,cf3_Y,cf3_Z,cf3_VelX,cf3_VelY,cf3_VelZ,cf3_Roll,cf3_Pitch,cf3_Yaw,cf3_GyroX,cf3_GyroY,cf3_GyroZ,cf3_Motor1,cf3_Motor2,cf3_Motor3,cf3_Motor4,cf3_targ_x,cf3_targ_y,cf3_targ_z
timestamp_sec,flight_state,fault_type,fault_motor_health,cf1_X,cf1_Y,cf1_Z,cf1_VelX,cf1_VelY,cf1_VelZ,cf1_Roll,cf1_Pitch,cf1_Yaw,cf1_GyroX,cf1_GyroY,cf1_GyroZ,cf1_Motor1,cf1_Motor2,cf1_Motor3,cf1_Motor4,cf1_targ_x,cf1_targ_y,cf1_targ_z,cf2_X,cf2_Y,cf2_Z,cf2_VelX,cf2_VelY,cf2_VelZ,cf2_Roll,cf2_Pitch,cf2_Yaw,cf2_GyroX,cf2_GyroY,cf2_GyroZ,cf2_Motor1,cf2_Motor2,cf2_Motor3,cf2_Motor4,cf2_targ_x,cf2_targ_y,cf2_targ_z,cf3_X,cf3_Y,cf3_Z,cf3_VelX,cf3_VelY,cf3_VelZ,cf3_Roll,cf3_Pitch,cf3_Yaw,cf3_GyroX,cf3_GyroY,cf3_GyroZ,cf3_Motor1,cf3_Motor2,cf3_Motor3,cf3_Motor4,cf3_targ_x,cf3_targ_y,cf3_targ_z
0.009,TAKEOFF,abrupt,1,0.60059267282486,0.00516923330724239,0.00176107895094901,0.00679616583511233,-0.0110794557258487,0.00666882004588842,0.4075827896595,0.299960434436798,-0.119587734341621,0.112019196152687,-0.112190417945385,0.0935164615511894,0,0,0,0,0.6,0,0.5,-0.337451308965683,0.658922731876373,0.00262200320139527,0.0165797229856253,-0.0124120200052857,-0.00976991187781096,-0.249489456415176,-2.02811121940613,3.46524286270142,-0.0513164736330509,0.426619440317154,0.0190639719367027,0,0,0,0,-0.300002544867548,0.51961377298239,0.5,-0.319272249937057,-0.540387749671936,0.00774293905124068,-0.0125287482514977,0.00137234304565936,0.00146842328831553,0.192326083779335,0.571203649044037,-2.25614404678345,-0.030756575986743,-0.17179411649704,-0.0416590757668018,0,0,0,0,-0.299994910243316,-0.519618180809818,0.5
0.029,TAKEOFF,abrupt,1,0.60059267282486,0.00516923330724239,0.00176107895094901,0.000173111213371158,0.00309559283778071,0.00452455179765821,0.291550666093826,0.35476541519165,-0.0780308097600937,-0.348300904035568,0.0963215008378029,-0.0631301030516624,0,0,0,0,0.6,0,0.5,-0.337451308965683,0.658922731876373,0.00262200320139527,0.0150127308443189,-0.0105231506749988,-0.0118588358163834,-0.272859483957291,-2.01637268066406,3.50467300415039,0.155752927064896,0.351961463689804,-0.183562710881233,0,0,0,0,-0.300002544867548,0.51961377298239,0.5,-0.319272249937057,-0.540387749671936,0.00774293905124068,-0.0129384798929095,0.00166861352045089,0.0015556754078716,0.193439140915871,0.570371270179749,-2.25581669807434,-0.21825510263443,-0.0597749575972557,-0.157913535833359,0,0,0,0,-0.299994910243316,-0.519618180809818,0.5
0.049,TAKEOFF,abrupt,1,0.60059267282486,0.00516923330724239,0.00176107895094901,3.21676634484902E-05,0.00310880970209837,0.0046709543094039,0.292871415615082,0.35016605257988,-0.0911728963255882,0.107262007892132,0.0897917151451111,0.0061967121437192,0,0,0,0,0.6,0,0.5,-0.337451308965683,0.658922731876373,0.00262200320139527,0.0120335202664137,-0.00679400470107794,-0.00523207429796457,-0.273140251636505,-2.01760721206665,3.50483870506287,-0.0283857621252537,-0.0644188299775124,-0.186360254883766,0,0,0,0,-0.300002544867548,0.51961377298239,0.5,-0.319272249937057,-0.540387749671936,0.00774293905124068,-0.0127294519916177,0.00081076065544039,-0.000436576985521242,0.199634477496147,0.565685153007507,-2.31033253669739,-0.127569496631622,0.170484304428101,-0.13802170753479,0,0,0,0,-0.299994910243316,-0.519618180809818,0.5
0.069,TAKEOFF,abrupt,1,0.60059267282486,0.00516923330724239,0.00176107895094901,0.000173552063643001,0.00247371778823435,0.00348339253105223,0.300181806087494,0.347554892301559,-0.106761150062084,-0.149831637740135,0.215595737099648,0.112310737371445,37110,37645,37220,37095,0.6,0,0.5,-0.337451308965683,0.658922731876373,0.00262200320139527,0.0123111633583903,-0.00666519347578287,-0.0050400854088366,-0.332453310489655,-1.9863920211792,3.57283544540405,-0.169686764478683,0.0715447217226028,0.12057176232338,41685,36443,39924,38865,-0.300002544867548,0.51961377298239,0.5,-0.324573814868927,-0.537287354469299,0.00632052263244987,-0.0132888024672866,0.000816538697108626,-0.000589036615565419,0.199634477496147,0.565685153007507,-2.31033253669739,-0.127569496631622,0.170484304428101,-0.13802170753479,0,0,0,0,-0.299994910243316,-0.519618180809818,0.5
0.089,TAKEOFF,abrupt,1,0.60059267282486,0.00516923330724239,0.00176107895094901,0.000158934752107598,0.00157171138562262,0.00255715195089579,0.30590632557869,0.346942901611328,-0.114704176783562,1.05862998962402,0.151368394494057,0.425239652395248,37963,38081,37825,37864,0.6,0,0.5,-0.340698480606079,0.662221312522888,0.00317997275851667,0.0136069944128394,0.00180198973976076,0.000287503789877519,-0.330688714981079,-1.98428654670715,3.56858992576599,-0.0417585670948029,0.750928342342377,-0.986842453479767,41826,36769,40383,39156,-0.300002544867548,0.51961377298239,0.5,-0.324573814868927,-0.537287354469299,0.00632052263244987,0.00999013800173998,-0.0120972795411944,0.00473819952458143,0.284554004669189,0.384882092475891,-2.22691059112549,0.143772721290588,-0.699205696582794,1.53850483894348,38680,41620,39482,40068,-0.299994910243316,-0.519618180809818,0.5
0.11,TAKEOFF,abrupt,1,0.600315392017365,0.00593709899112582,0.00217405380681157,-0.000657404772937298,0.00077721249544993,0.00240216450765729,0.260037004947662,0.363011956214905,-0.059245303273201,-2.52495455741882,-1.17448043823242,-0.54213148355484,37299,38733,39164,38363,0.6,0,0.5,-0.340698480606079,0.662221312522888,0.00317997275851667,0.0197497271001339,0.00234128977172077,-0.00103447225410491,-0.357395827770233,-1.96193397045136,3.61737823486328,0.160711482167244,-0.683345079421997,-0.0982520133256912,42992,37475,41454,40141,-0.300002544867548,0.51961377298239,0.5,-0.324573814868927,-0.537287354469299,0.00632052263244987,0.00864122249186039,-0.0130203533917665,0.00413905875757337,0.288791865110397,0.39004448056221,-2.23358511924744,1.55542004108429,-0.186524733901024,-0.825882852077484,39673,42727,40658,41713,-0.299994910243316,-0.519618180809818,0.5
0.129,TAKEOFF,abrupt,1,0.600315392017365,0.00593709899112582,0.00217405380681157,-0.00339563051238656,0.0061262003146112,0.0058927945792675,0.261611193418503,0.360258668661118,-0.0591992549598217,0.22624246776104,-2.51735639572144,0.208000481128693,40570,40739,36941,37080,0.6,0,0.5,-0.340698480606079,0.662221312522888,0.00317997275851667,0.0241576787084341,0.00811433792114258,0.00360676809214056,-0.382141947746277,-1.94656217098236,3.68731665611267,-0.887206614017487,-0.351717501878738,-0.397125989198685,44163,37394,41824,41629,-0.300002544867548,0.51961377298239,0.5,-0.324573814868927,-0.537287354469299,0.00632052263244987,0.0174092575907707,-0.0177359078079462,-0.000812282261904329,0.0806612446904182,0.525220274925232,-2.18062448501587,0.0411978662014008,2.29909038543701,0.274419039487839,42352,43327,39331,43715,-0.299994910243316,-0.519618180809818,0.5
0.149,TAKEOFF,abrupt,1,0.600315392017365,0.00593709899112582,0.00217405380681157,-0.00380547042004764,0.00271363207139075,0.00231017218902707,0.340332865715027,0.213796034455299,-0.217430144548416,-1.75315964221954,-1.5147784948349,-8.9595251083374,38263,41180,39517,38863,0.6,0,0.5,-0.340698480606079,0.662221312522888,0.00317997275851667,0.029243690893054,0.0123989870771766,0.00705224368721247,-0.390455156564713,-1.93958473205566,3.68915438652039,1.2639399766922,-1.59024143218994,-0.781285285949707,44311,38084,42925,42139,-0.300002544867548,0.51961377298239,0.5,-0.322715610265732,-0.536901354789734,0.00578572414815426,-0.0100171575322747,0.0140183139592409,-0.00826846528798342,0.0806945115327835,0.513909757137299,-2.18158388137817,-1.23131549358368,1.92599058151245,-0.546127200126648,41395,44504,42875,43945,-0.299994910243316,-0.519618180809818,0.5
0.17,TAKEOFF,abrupt,1,0.600315392017365,0.00593709899112582,0.00217405380681157,0.0123017216101289,-0.00557027105242014,-0.000482312199892476,0.346250742673874,0.217137515544891,-0.485688269138336,1.91507482528687,0.549842238426209,-9.77633953094482,38742,41463,39285,41182,0.6,0,0.5,-0.340698480606079,0.662221312522888,0.00317997275851667,0.0357983931899071,0.0141728073358536,0.00746197253465652,-0.388573467731476,-1.94374001026154,3.6871325969696,0.621080636978149,1.00140273571014,1.93944036960602,44933,39088,44258,43056,-0.300002544867548,0.51961377298239,0.5,-0.322715610265732,-0.536901354789734,0.00578572414815426,0.00247656903229654,0.00662785861641169,-0.00594525504857302,0.116512216627598,0.3880535364151,-2.1168806552887,0.227829024195671,0.871150672435761,2.58538341522217,42878,42592,43120,46597,-0.299994910243316,-0.519618180809818,0.5
0.189,TAKEOFF,abrupt,1,0.600315392017365,0.00593709899112582,0.00217405380681157,0.0115447295829654,-0.00672218715772033,-0.00238567497581244,0.250691592693329,0.286855429410934,-0.456701308488846,-10.8939371109009,-12.4289131164551,2.12212920188904,38790,40190,43083,40095,0.6,0,0.5,-0.339228332042694,0.663766920566559,0.00430760392919183,0.0423489660024643,0.0159372854977846,0.00778325600549579,-0.418112635612488,-1.85688900947571,3.75425505638123,4.53002834320068,-2.80990695953369,2.91602373123169,44933,39088,44258,43056,-0.300002544867548,0.51961377298239,0.5,-0.322715610265732,-0.536901354789734,0.00578572414815426,-0.0124622117727995,0.021081967279315,-0.0117952106520534,-0.0295422412455082,0.463932663202286,-2.13528180122375,4.83039236068726,-4.29992723464966,2.95826435089111,42714,47991,44671,42214,-0.299994910243316,-0.519618180809818,0.5
0.209,TAKEOFF,abrupt,1,0.603839218616486,0.00830973777920008,0.00114676216617227,0.000641902384813875,0.00803335383534431,-0.002761006122455,0.0688205882906914,0.445081889629364,-0.439972370862961,12.7837696075439,12.7709312438965,-21.1967926025391,41051,43160,36366,42522,0.6,0,0.5,-0.339228332042694,0.663766920566559,0.00430760392919183,0.0421858616173267,0.0210575740784407,0.00802111160010099,-0.396983981132507,-1.83410847187042,3.87949681282043,1.93410575389862,0.03518271073699,1.27057111263275,45399,40413,44909,43664,-0.300002544867548,0.51961377298239,0.5,-0.322715610265732,-0.536901354789734,0.00578572414815426,-0.0240623094141483,0.0182305071502924,-0.00849853921681643,0.0464252531528473,0.594339191913605,-2.20023655891418,-10.3896923065186,5.69185066223145,-5.42756319046021,41207,43030,45212,49321,-0.299994910243316,-0.519618180809818,0.5
0.229,TAKEOFF,abrupt,1,0.603839218616486,0.00830973777920008,0.00114676216617227,-0.00538654765114188,0.0140243656933308,-0.00540435872972012,0.237515658140182,0.259572952985764,-0.841907918453217,2.18078231811523,0.545300841331482,-5.74287414550781,41524,42133,39314,41134,0.6,0,0.5,-0.339228332042694,0.663766920566559,0.00430760392919183,0.0484033897519112,0.0228543858975172,0.00831848382949829,-0.411867946386337,-1.77517247200012,3.92237162590027,1.65231835842133,-1.111044049263,-0.319422423839569,45399,40413,44909,43664,-0.300002544867548,0.51961377298239,0.5,-0.322715610265732,-0.536901354789734,0.00578572414815426,-0.0260034818202257,0.0168969221413136,-0.00916502252221108,-0.0103297121822834,0.535302996635437,-2.28160881996155,0.479577243328095,3.73627042770386,22.3493709564209,41807,42928,48902,47051,-0.299994910243316,-0.519618180809818,0.5
0.249,TAKEOFF,abrupt,1,0.603839218616486,0.00830973777920008,0.00114676216617227,-0.00645328545942903,0.0133741004392505,-0.00340277655050158,0.228916153311729,0.305713295936584,-0.960285246372223,4.51096725463867,0.350496292114258,-10.4843263626099,41176,40808,39539,43523,0.6,0,0.5,-0.339228332042694,0.663766920566559,0.00430760392919183,0.0381329730153084,0.0103109646588564,0.00769188534468412,-0.304173827171326,-1.67287886142731,3.94249510765076,1.72162663936615,0.452928841114044,0.54908299446106,46608,39012,44085,45720,-0.300002544867548,0.51961377298239,0.5,-0.32611221075058,-0.535947442054749,0.00479989498853684,-0.0275197979062796,0.0174507219344378,-0.0062595303170383,-0.111839972436428,0.414529770612717,-2.0332133769989,-2.67269802093506,0.7865389585495,-2.58741641044617,44781,48416,44858,44368,-0.299994910243316,-0.519618180809818,0.5
0.269,TAKEOFF,abrupt,1,0.603839218616486,0.00830973777920008,0.00114676216617227,-0.00746103283017874,0.0125668924301863,-0.00294713792391121,0.272214651107788,0.291205227375031,-1.16947603225708,-1.83003580570221,-4.68309831619263,-7.81550741195679,36660,42517,43294,43207,0.6,0,0.5,-0.339228332042694,0.663766920566559,0.00430760392919183,0.0415453650057316,0.0138274366036057,0.00853205844759941,-0.287292629480362,-1.65535771846771,3.89668416976929,-1.90971553325653,0.123800612986088,-10.0019407272339,47350,40998,44474,43902,-0.300002544867548,0.51961377298239,0.5,-0.32611221075058,-0.535947442054749,0.00479989498853684,-0.0280523207038641,0.0170048549771309,-0.00979305617511272,-0.146234035491943,0.37678062915802,-2.05355381965637,7.81763458251953,-10.0710220336914,3.86459922790527,43610,48207,47355,44903,-0.299994910243316,-0.519618180809818,0.5
0.289,TAKEOFF,abrupt,1,0.603839218616486,0.00830973777920008,0.00114676216617227,-0.0259968936443329,-0.00159536104183644,-0.010258574038744,0.363454937934875,0.472335636615753,-1.3836270570755,8.22823333740234,10.456488609314,-10.4368906021118,42193,43059,38956,43262,0.6,0,0.5,-0.339694887399673,0.663928866386414,0.00497638480737805,0.0451219491660595,0.0164977964013815,0.00865100417286158,-0.288838118314743,-1.68971586227417,3.83105111122131,0.574376583099365,-0.877521216869354,-1.82348644733429,47502,39988,44267,45809,-0.300002544867548,0.51961377298239,0.5,-0.32611221075058,-0.535947442054749,0.00479989498853684,-0.0151924062520266,0.00965494569391012,0.00614368356764317,0.0529310554265976,0.437458425760269,-1.9258131980896,-6.25156450271606,4.7650032043457,5.26845121383667,44601,44556,46431,48669,-0.299994910243316,-0.519618180809818,0.5
0.309,TAKEOFF,abrupt,1,0.599722385406494,0.00662700878456235,0.00017922034021467,-0.0270267277956009,-0.00345216761343181,-0.0196604039520025,0.451682955026627,0.369101852178574,-1.58878767490387,-0.85443377494812,-2.04964661598206,-4.62594604492188,41686,43802,41049,42810,0.6,0,0.5,-0.339694887399673,0.663928866386414,0.00497638480737805,0.0465164966881275,0.00889767892658711,0.0078741991892457,-0.216768190264702,-1.65266168117523,3.78077673912048,0.976434290409088,-1.28637611865997,-4.05312585830689,47580,40068,44212,46624,-0.300002544867548,0.51961377298239,0.5,-0.32611221075058,-0.535947442054749,0.00479989498853684,-0.0105467913672328,0.0066539216786623,0.0182515978813171,-0.0117058726027608,0.290959477424622,-1.8029271364212,-8.32725620269775,6.07437324523926,14.6491136550903,45342,45838,47393,46178,-0.299994910243316,-0.519618180809818,0.5
0.329,TAKEOFF,abrupt,1,0.599722385406494,0.00662700878456235,0.00017922034021467,-0.0271459855139256,-0.0039001686964184,-0.0192115567624569,0.507524490356445,0.271585702896118,-1.77794635295868,-0.259496599435806,-1.81766438484192,3.46959972381592,41597,43701,42100,43204,0.6,0,0.5,-0.339694887399673,0.663928866386414,0.00497638480737805,0.0694246515631676,-0.0032674774993211,7.89312762208283E-05,-0.115469120442867,-1.75562787055969,3.60550475120544,2.60774207115173,3.34498143196106,-5.02505493164063,48361,40926,45084,47082,-0.300002544867548,0.51961377298239,0.5,-0.32611221075058,-0.535947442054749,0.00479989498853684,-0.00795102026313543,0.00543141923844814,0.0232712216675282,-0.134128302335739,0.120259083807468,-1.52998411655426,10.4805011749268,-9.70634174346924,16.9265174865723,48676,46029,49502,40126,-0.299994910243316,-0.519618180809818,0.5
0.349,TAKEOFF,abrupt,1,0.599722385406494,0.00662700878456235,0.00017922034021467,-0.0162236075848341,-0.0183255039155483,-0.00775291118770838,0.533921539783478,0.280223935842514,-1.79904568195343,-1.87498641014099,-0.628267049789429,16.3518161773682,43611,43654,42538,41462,0.6,0,0.5,-0.339694887399673,0.663928866386414,0.00497638480737805,0.0790675133466721,-0.00315517419949174,-0.00483300723135471,-0.110874034464359,-1.79710447788239,3.33833837509155,-2.5983521938324,1.9739750623703,-7.75377035140991,49314,42710,43936,46715,-0.300002544867548,0.51961377298239,0.5,-0.318053632974625,-0.541418194770813,0.0100383758544922,-0.00533057050779462,0.00502963690087199,0.0247507467865944,0.122971251606941,0.390630573034286,-1.04276657104492,10.7856616973877,-9.86135768890381,12.0527296066284,47043,49073,46538,43216,-0.299994910243316,-0.519618180809818,0.5
0.369,TAKEOFF,abrupt,1,0.599722385406494,0.00662700878456235,0.00017922034021467,-0.0139612639322877,-0.0197787098586559,-0.0155510231852531,0.501738488674164,0.26507180929184,-1.55613768100739,0.960122346878052,2.18514966964722,9.72338962554932,44298,44658,42310,41144,0.6,0,0.5,-0.339694887399673,0.663928866386414,0.00497638480737805,0.0730670914053917,-0.00908645428717136,-0.0102382553741336,-0.0992455258965492,-1.71120536327362,3.21900033950806,2.24627995491028,-4.38366174697876,-3.98468232154846,48154,41469,46704,48053,-0.300002544867548,0.51961377298239,0.5,-0.318053632974625,-0.541418194770813,0.0100383758544922,-0.00725769950076938,0.00568110216408968,0.0274397153407335,0.188922867178917,0.486279249191284,-0.963374674320221,5.13744497299194,-5.52752113342285,6.75720024108887,46134,48888,47546,44381,-0.299994910243316,-0.519618180809818,0.5
0.389,TAKEOFF,abrupt,1,0.599722385406494,0.00662700878456235,0.00017922034021467,-0.012566301971674,-0.0192445423454046,-0.0224919952452183,0.438915759325027,0.284799218177795,-1.19731330871582,0.687222480773926,0.547951579093933,7.81163597106934,44310,44620,42835,42334,0.6,0,0.5,-0.336745172739029,0.661293029785156,0.00251914048567414,0.0717101246118546,-0.00645076204091311,-0.00775202782824636,-0.120433785021305,-1.64772021770477,3.18889164924622,2.3262460231781,-1.54684770107269,2.15536499023437,48154,41469,46704,48053,-0.300002544867548,0.51961377298239,0.5,-0.318053632974625,-0.541418194770813,0.0100383758544922,-0.00255332794040442,0.00294537958689034,0.0209878981113434,0.221907615661621,0.431479394435883,-0.649693012237549,-4.75752925872803,4.1389684677124,8.13890075683594,46225,46366,48148,47246,-0.299994910243316,-0.519618180809818,0.5
0.409,TAKEOFF,abrupt,1,0.604255735874176,0.00711921881884337,-0.000687011808622628,-0.0198209621012211,-0.00704231159761548,-0.013624438084662,0.459502130746841,0.275356203317642,-1.13059139251709,-1.53989374637604,-3.30786871910095,9.6721076965332,42710,44164,44690,43159,0.6,0,0.5,-0.336745172739029,0.661293029785156,0.00251914048567414,0.0720142349600792,-0.0083501860499382,-0.00316512095741928,-0.21247535943985,-1.56689345836639,3.21902370452881,-3.71687722206116,2.01410436630249,4.22256565093994,50667,44894,45911,44839,-0.300002544867548,0.51961377298239,0.5,-0.318053632974625,-0.541418194770813,0.0100383758544922,-0.015753785148263,0.0192567147314549,0.00183937989640981,0.03650738671422,0.481100291013718,-0.537248849868774,-1.24743378162384,3.6722846031189,14.7947549819946,48404,46908,47849,46507,-0.299994910243316,-0.519618180809818,0.5
0.429,TAKEOFF,abrupt,1,0.604255735874176,0.00711921881884337,-0.000687011808622628,-0.0312173515558243,-0.0108860563486815,-0.00758528057485819,0.471766740083694,0.329888045787811,-1.00631427764893,-0.731358647346497,0.863501012325287,15.2196264266968,45033,44494,43662,42785,0.6,0,0.5,-0.336745172739029,0.661293029785156,0.00251914048567414,0.0690091773867607,-0.00136350700631738,-0.000789351703133434,-0.177928373217583,-1.44685804843903,3.3941695690155,-4.59022188186646,-5.16117191314697,7.98068714141846,50667,44894,45911,44839,-0.300002544867548,0.51961377298239,0.5,-0.318053632974625,-0.541418194770813,0.0100383758544922,-0.0175035782158375,0.0192057602107525,0.00452272081747651,-0.0616081766784191,0.371773540973663,-0.248651549220085,-8.05096626281738,8.34975242614746,10.0530548095703,46955,46811,49948,48123,-0.299994910243316,-0.519618180809818,0.5
0.449,TAKEOFF,abrupt,1,0.604255735874176,0.00711921881884337,-0.000687011808622628,-0.0280376896262169,-0.0145331621170044,-0.00166514166630805,0.441270262002945,0.32325080037117,-0.702481210231781,-0.304157555103302,-2.61563467979431,16.8833503723145,45380,43265,44011,43632,0.6,0,0.5,-0.336745172739029,0.661293029785156,0.00251914048567414,0.0688812807202339,0.0037171880248934,0.00905697047710419,-0.235725775361061,-1.37491893768311,3.47251653671265,3.68278884887695,-19.8557205200195,9.878981590271,49017,41834,48434,47560,-0.300002544867548,0.51961377298239,0.5,-0.320109814405441,-0.539229571819305,0.00819834508001804,-0.00695611629635096,0.00930116139352322,-0.00289290305227041,-0.122674569487572,0.152398094534874,-0.0169289261102676,8.28365421295166,-6.1917576789856,13.8586025238037,49135,49752,49346,45042,-0.299994910243316,-0.519618180809818,0.5
0.469,TAKEOFF,abrupt,1,0.604255735874176,0.00711921881884337,-0.000687011808622628,-0.025596184656024,-0.0109594082459807,-0.00812607631087303,0.40095117688179,0.286955326795578,-0.34914231300354,2.57471013069153,5.03560638427734,19.490966796875,46192,44282,43831,44488,0.6,0,0.5,-0.336745172739029,0.661293029785156,0.00251914048567414,0.0864965245127678,-0.00350928422994912,0.00516384653747082,-0.159356012940407,-1.1457405090332,3.61413764953613,-1.04228234291077,-16.8480472564697,12.0463714599609,50263,40013,48113,48794,-0.300002544867548,0.51961377298239,0.5,-0.320109814405441,-0.539229571819305,0.00819834508001804,-0.0177774950861931,0.0184796378016472,-0.0034838744904846,-0.0175879411399364,0.370845973491669,0.239176511764526,10.6139688491821,-9.59090900421143,12.1300897598267,47911,49396,51100,46272,-0.299994910243316,-0.519618180809818,0.5
0.489,TAKEOFF,abrupt,1,0.604255735874176,0.00711921881884337,-0.000687011808622628,-0.0276704784482718,-0.012235751375556,-0.00727638555690646,0.456567317247391,0.302623391151428,0.0283585339784622,-0.147500038146973,-0.617061257362366,25.658296585083,45762,43512,45659,43841,0.6,0,0.5,-0.332594066858292,0.661830246448517,0.00280488701537251,0.0902061238884926,-0.00253742886707187,0.0147060183808208,-0.231832355260849,-0.725747764110565,3.856116771698,-5.20132255554199,-34.8607978820801,10.7578372955322,49970,44933,49857,45287,-0.300002544867548,0.51961377298239,0.5,-0.320109814405441,-0.539229571819305,0.00819834508001804,-0.0186259467154741,0.0139471469447017,-0.0131295761093497,0.228387072682381,0.586126506328583,0.485090404748917,-0.870916366577148,-2.11642050743103,19.9558582305908,50050,46861,51107,48567,-0.299994910243316,-0.519618180809818,0.5
0.509,TAKEOFF,abrupt,1,0.605144023895264,0.0073987771756947,-0.00122716592159122,-0.0214756671339273,-0.0157624538987875,-0.0112633779644966,0.413064241409302,0.280910462141037,0.492108285427094,9.06818103790283,9.93078517913818,19.4699058532715,47593,46242,44026,41986,0.6,0,0.5,-0.332594066858292,0.661830246448517,0.00280488701537251,0.0938668996095657,-0.00225017894990742,0.0213354285806417,-0.342534482479095,0.15234237909317,4.09337997436523,8.45808792114258,-46.9358367919922,14.0803022384644,49970,44933,49857,45287,-0.300002544867548,0.51961377298239,0.5,-0.320109814405441,-0.539229571819305,0.00819834508001804,-0.0207275692373514,0.0131181487813592,-0.00954421795904636,0.150911971926689,0.5540651679039,0.885495901107788,-5.56164503097534,10.5744514465332,18.1401023864746,50229,47669,51502,48321,-0.299994910243316,-0.519618180809818,0.5
0.529,TAKEOFF,abrupt,1,0.605144023895264,0.0073987771756947,-0.00122716592159122,-0.0218387339264154,-0.0190918892621994,-0.00944660604000092,0.478245884180069,0.249702945351601,0.937709808349609,0.279080152511597,-2.14543390274048,19.5660285949707,46988,45461,46848,42751,0.6,0,0.5,-0.332594066858292,0.661830246448517,0.00280488701537251,0.0661968216300011,0.00738697592169046,0.0320853851735592,-0.203786358237267,1.16420233249664,4.37935066223145,-2.50796365737915,-59.8435783386231,14.4002780914307,46731,48556,53231,41001,-0.300002544867548,0.51961377298239,0.5,-0.320109814405441,-0.539229571819305,0.00819834508001804,-0.0189632643014193,0.0126741481944919,-0.00866266805678606,-0.0089007681235671,0.355637907981873,1.2373206615448,-6.04916524887085,-0.184302777051926,13.5896768569946,50468,49391,52551,46249,-0.299994910243316,-0.519618180809818,0.5
0.549,TAKEOFF,abrupt,1,0.605144023895264,0.0073987771756947,-0.00122716592159122,-0.0234773363918066,-0.0129771521314979,-0.00674382876604795,0.458870977163315,0.279915779829025,1.346799492836,-2.48198533058166,-4.37681818008423,21.7444000244141,46227,46015,47806,41851,0.6,0,0.5,-0.332594066858292,0.661830246448517,0.00280488701537251,0.0655942633748055,0.00349301425740123,0.0435045659542084,-0.340576440095901,2.54181051254272,4.64533281326294,-16.2524604797363,-58.0365104675293,12.2457866668701,45286,47296,54649,42796,-0.300002544867548,0.51961377298239,0.5,-0.319744467735291,-0.538421094417572,0.00593907572329044,-0.000360140693373978,0.00447377888485789,-0.0101850917562842,0.0372082181274891,0.253559052944183,1.58981335163116,16.6376399993896,-10.6448564529419,22.5822277069092,52021,50676,51951,45235,-0.299994910243316,-0.519618180809818,0.5
0.569,TAKEOFF,abrupt,1,0.605144023895264,0.0073987771756947,-0.00122716592159122,-0.0334781855344772,-0.0160367786884308,-0.00102105154655874,0.385520607233047,0.400241076946259,1.76566565036774,6.389892578125,1.44588828086853,21.8823127746582,48100,46339,46784,41337,0.6,0,0.5,-0.332594066858292,0.661830246448517,0.00280488701537251,0.0315738581120968,0.00313695752993226,0.0540620759129524,-0.691247522830963,3.82728052139282,4.84973096847534,-13.16930103302,-53.3810501098633,5.607666015625,44887,46050,55183,44791,-0.300002544867548,0.51961377298239,0.5,-0.319744467735291,-0.538421094417572,0.00593907572329044,-0.00141228514257818,0.00406759791076183,-0.00935821887105703,0.264161646366119,0.46006640791893,2.00897860527039,3.71085596084595,0.367910772562027,17.1801414489746,52021,50676,51951,45235,-0.299994910243316,-0.519618180809818,0.5
0.589,TAKEOFF,abrupt,1,0.605144023895264,0.0073987771756947,-0.00122716592159122,-0.0347949117422104,-0.0174859911203384,-0.000659225392155349,0.474005341529846,0.321027219295502,2.19364500045776,-3.80322432518005,-5.19834613800049,16.5657653808594,45277,45458,49811,43159,0.6,0,0.5,-0.332650423049927,0.661277115345001,0.00658515049144626,0.0160110183060169,0.00350999203510582,0.0600689239799976,-0.996832132339478,4.89478778839111,4.93307304382324,-11.0591764450073,-26.1159191131592,9.71125221252441,46263,47257,54342,44266,-0.300002544867548,0.51961377298239,0.5,-0.319744467735291,-0.538421094417572,0.00593907572329044,0.0187636651098728,-0.0118068614974618,-0.00839232094585896,0.543660640716553,0.278913199901581,2.47093152999878,12.7110662460327,-5.69239521026611,17.9450035095215,53298,49913,53010,46231,-0.299994910243316,-0.519618180809818,0.5
0.609,TAKEOFF,abrupt,1,0.596531808376312,0.0100350119173527,0.00122153479605913,-0.0359208807349205,-0.019014235585928,-0.0030487549956888,0.313395291566849,0.367031574249268,2.60166215896606,-3.0251567363739,-3.88353300094604,19.1907024383545,47726,46419,48940,42786,0.6,0,0.5,-0.332650423049927,0.661277115345001,0.00658515049144626,-0.00310161267407238,0.00565525330603123,0.0710772573947907,-1.16587543487549,5.41980218887329,5.08080530166626,16.1311340332031,3.06184816360474,12.9689054489136,48599,47447,53253,43978,-0.300002544867548,0.51961377298239,0.5,-0.319744467735291,-0.538421094417572,0.00593907572329044,0.0290020480751991,-0.0225963499397039,0.00129293231293559,0.770521819591522,0.297986567020416,2.77816414833069,9.30891609191895,7.17387390136719,9.21444416046143,53300,50368,51526,48547,-0.299994910243316,-0.519618180809818,0.5
0.629,TAKEOFF,abrupt,1,0.596531808376312,0.0100350119173527,0.00122153479605913,-0.0425375252962112,-0.00513644982129335,0.00878660380840302,0.225811138749123,0.449979871511459,2.98365354537964,16.2507419586182,-2.42445993423462,15.3416919708252,49336,47515,47121,41159,0.6,0,0.5,-0.332650423049927,0.661277115345001,0.00658515049144626,-0.0246710032224655,0.00764704681932926,0.0869974568486214,-0.927114963531494,5.34129476547241,5.30625677108765,14.5015697479248,19.5998668670654,12.5483512878418,51266,46343,51588,45122,-0.300002544867548,0.51961377298239,0.5,-0.319744467735291,-0.538421094417572,0.00593907572329044,0.028242090716958,-0.0255526937544346,0.00695446925237775,1.01202130317688,0.143413424491882,2.95435905456543,17.7718067169189,19.3855590820312,6.56274890899658,56311,49795,48190,49827,-0.299994910243316,-0.519618180809818,0.5
0.649,TAKEOFF,abrupt,1,0.596531808376312,0.0100350119173527,0.00122153479605913,-0.0438918322324753,-0.00607944512739778,0.00864923465996981,0.406446903944016,0.0962138473987579,3.31049919128418,-6.02158832550049,12.9663047790527,10.6029710769653,47903,45762,49263,44771,0.6,0,0.5,-0.332650423049927,0.661277115345001,0.00658515049144626,-0.0579651705920696,0.0219316761940718,0.107424885034561,-0.744682788848877,5.05352878570557,5.58141756057739,9.01363182067871,14.8100862503052,13.223217010498,49666,47597,53376,43112,-0.300002544867548,0.51961377298239,0.5,-0.313351809978485,-0.542582213878632,0.0061124749481678,0.0282737165689468,-0.0294822324067354,0.0137764820829034,1.33433187007904,-0.224528133869171,3.07895851135254,9.10142230987549,18.7745704650879,4.03566837310791,55466,49245,49803,50926,-0.299994910243316,-0.519618180809818,0.5
0.669,TAKEOFF,abrupt,1,0.596531808376312,0.0100350119173527,0.00122153479605913,-0.000295223260764033,0.00693087093532085,0.00619611842557788,0.362881928682327,-0.202007874846458,3.51305603981018,9.93103885650635,11.2442245483398,3.39522981643677,50140,46431,46320,45288,0.6,0,0.5,-0.332650423049927,0.661277115345001,0.00658515049144626,-0.0756705179810524,0.0226227790117264,0.113095603883266,-0.57024496793747,4.8013334274292,5.8391375541687,17.3246097564697,10.4003734588623,16.1831245422363,51245,46212,52805,44311,-0.300002544867548,0.51961377298239,0.5,-0.313351809978485,-0.542582213878632,0.0061124749481678,0.0160775240510702,-0.0325893498957157,0.0314977653324604,1.53808832168579,-0.571453630924225,3.1156542301178,16.7279567718506,25.6168899536133,3.42362761497498,54873,50931,50588,49350,-0.299994910243316,-0.519618180809818,0.5
0.689,TAKEOFF,abrupt,1,0.596531808376312,0.0100350119173527,0.00122153479605913,0.000462917523691431,0.00548282219097018,0.0110951354727149,0.429809510707855,-0.373964428901672,3.62652087211609,7.11152744293213,-1.15888392925262,1.06111562252045,48579,47720,48405,44568,0.6,0,0.5,-0.337953478097916,0.6653773188591,0.016496479511261,-0.0904816836118698,0.0253613907843828,0.121849559247494,-0.296734213829041,4.55262422561646,6.13877773284912,10.9602403640747,24.0522804260254,16.9641189575195,51225,45844,53259,44798,-0.300002544867548,0.51961377298239,0.5,-0.313351809978485,-0.542582213878632,0.0061124749481678,0.0161027647554874,-0.0351205430924892,0.031505037099123,1.76917135715485,-0.986028492450714,3.16182398796082,-9.02524185180664,13.7029895782471,7.4643087387085,55137,47746,51308,52560,-0.299994910243316,-0.519618180809818,0.5
0.709,TAKEOFF,abrupt,1,0.599483966827393,0.013834579847753,0.00127378827892244,-0.00350855779834092,0.0140633936971426,0.0155314197763801,0.586876094341278,-0.395076125860214,3.65918731689453,23.0467262268066,4.31595373153687,-0.622155010700226,50918,47813,46416,44832,0.6,0,0.5,-0.337953478097916,0.6653773188591,0.016496479511261,-0.0897168070077896,0.0141415912657976,0.124724134802818,-0.00364405778236687,3.93885540962219,6.40644264221191,5.98084545135498,40.2013130187988,17.2541046142578,51225,45844,53259,44798,-0.300002544867548,0.51961377298239,0.5,-0.313351809978485,-0.542582213878632,0.0061124749481678,0.0195379331707954,-0.0386963561177254,0.0282324980944395,1.51643621921539,-1.38747382164001,3.26873517036438,-21.8610858917236,40.2033920288086,7.84735774993897,56942,47301,50039,53388,-0.299994910243316,-0.519618180809818,0.5
0.729,TAKEOFF,abrupt,1,0.599483966827393,0.013834579847753,0.00127378827892244,-0.030636141076684,-0.00958056282252073,0.0265322308987379,1.19652903079987,-0.261996567249298,3.68832850456238,34.976879119873,0.105044826865196,5.11529684066772,50969,49673,46987,42407,0.6,0,0.5,-0.337953478097916,0.6653773188591,0.016496479511261,-0.103281281888485,0.0124630490317941,0.138310343027115,-0.00295448582619429,3.13894057273865,6.77917957305908,2.82233238220215,56.5738830566406,17.5047302246094,55082,41137,53026,45140,-0.300002544867548,0.51961377298239,0.5,-0.313351809978485,-0.542582213878632,0.0061124749481678,0.0433026626706123,-0.0518851317465305,0.0291412267833948,1.18520152568817,-2.29443049430847,3.50296688079834,-15.7012090682983,29.210807800293,9.53651905059814,56827,48840,51183,52354,-0.299994910243316,-0.519618180809818,0.5
0.749,TAKEOFF,abrupt,1,0.599483966827393,0.013834579847753,0.00127378827892244,-0.0319575779139996,-0.0155227780342102,0.0321217142045498,1.85753583908081,-0.237566694617271,3.82085466384888,18.1990661621094,-9.23443412780762,6.87414646148682,49919,49190,48927,43258,0.6,0,0.5,-0.337953478097916,0.6653773188591,0.016496479511261,-0.123046725988388,0.0217599142342806,0.162799581885338,0.0405838564038277,2.05837631225586,7.13874912261963,5.51795101165772,40.9890518188477,16.2745933532715,53058,42094,55101,43682,-0.300002544867548,0.51961377298239,0.5,-0.315264850854874,-0.542807459831238,0.0107224024832249,0.0323706194758415,-0.0407540909945965,0.0228100977838039,0.760932207107544,-2.71327233314514,3.68854022026062,-16.8468723297119,21.8670635223389,8.54357433319092,56748,48623,52283,53408,-0.299994910243316,-0.519618180809818,0.5
0.769,TAKEOFF,abrupt,1,0.599483966827393,0.013834579847753,0.00127378827892244,-0.0315753184258938,-0.0206481609493494,0.0425436981022358,2.22738075256348,-0.0503647923469543,3.96398758888245,-1.61356592178345,-4.84890985488892,2.1810576915741,48888,48326,50086,44940,0.6,0,0.5,-0.337953478097916,0.6653773188591,0.016496479511261,-0.131434231996536,0.0257218983024359,0.180167153477669,0.121186502277851,1.30651414394379,7.46849918365479,-0.14286096394062,17.7807083129883,16.1762275695801,51237,40425,56941,45063,-0.300002544867548,0.51961377298239,0.5,-0.315264850854874,-0.542807459831238,0.0107224024832249,0.0573699101805687,-0.0499998182058334,0.0225405767560005,0.529881358146668,-3.20486760139465,3.91516065597534,1.08769333362579,2.56338214874268,10.8119029998779,57826,51619,52124,50899,-0.299994910243316,-0.519618180809818,0.5
0.789,TAKEOFF,abrupt,1,0.599483966827393,0.013834579847753,0.00127378827892244,-0.0306777413934469,-0.0272149369120598,0.0492268763482571,2.1458101272583,0.0548191592097282,4.01786518096924,-12.5995655059814,28.030590057373,2.02687692642212,51739,46111,47719,47328,0.6,0,0.5,-0.34720504283905,0.668410241603851,0.0322508811950684,-0.108780279755592,0.0124723566696048,0.170512318611145,0.0909533053636551,0.834548890590668,7.79419803619385,-10.7477102279663,14.2773141860962,14.4667816162109,52788,43069,55724,43947,-0.300002544867548,0.51961377298239,0.5,-0.315264850854874,-0.542807459831238,0.0107224024832249,0.0688819959759712,-0.0510390475392342,0.028675576671958,0.5948686003685,-3.24123454093933,4.12151145935059,17.1352863311768,6.6867823600769,7.63850831985474,60124,50750,49183,52565,-0.299994910243316,-0.519618180809818,0.5
0.809,TAKEOFF,abrupt,1,0.590881288051605,0.00813180301338434,0.00755889946594834,-0.0308575164526701,-0.0370500311255455,0.0530917122960091,1.91818034648895,-0.489202499389648,4.11673069000244,-12.7063217163086,38.2775230407715,5.40939426422119,53118,45541,47180,47675,0.6,0,0.5,-0.34720504283905,0.668410241603851,0.0322508811950684,-0.116848975419998,0.0202398486435413,0.188846185803413,-0.0732284858822823,0.617024898529053,8.03754901885986,5.54223251342773,6.51793241500855,13.8336496353149,52788,43069,55724,43947,-0.300002544867548,0.51961377298239,0.5,-0.315264850854874,-0.542807459831238,0.0107224024832249,0.0927145406603813,-0.0600078664720058,0.0355308651924133,1.05275988578796,-3.53912782669067,4.32081651687622,19.9438819885254,13.9299983978271,8.79212474822998,60133,51173,50101,52413,-0.299994910243316,-0.519618180809818,0.5
0.829,TAKEOFF,abrupt,1,0.590881288051605,0.00813180301338434,0.00755889946594834,-0.0287055801600218,-0.043323215097189,0.063774585723877,1.6546459197998,-1.24012088775635,4.30513000488281,-31.3941192626953,20.3516273498535,10.6619834899902,49821,46079,50839,47833,0.6,0,0.5,-0.34720504283905,0.668410241603851,0.0322508811950684,-0.118891417980194,0.0201504752039909,0.195152580738068,0.103288769721985,0.485937356948853,8.32357311248779,22.6807460784912,8.03810882568359,14.3319110870361,54900,45892,54498,40871,-0.300002544867548,0.51961377298239,0.5,-0.315264850854874,-0.542807459831238,0.0107224024832249,0.105808295309544,-0.0631316527724266,0.0421573333442211,1.44055604934692,-3.75766253471375,4.49413108825684,14.2478246688843,-0.0485793463885784,7.74264097213745,60717,51446,49826,52620,-0.299994910243316,-0.519618180809818,0.5
0.849,TAKEOFF,abrupt,1,0.590881288051605,0.00813180301338434,0.00755889946594834,-0.0239346064627171,-0.0480242967605591,0.0673277229070663,1.13538980484009,-1.67863714694977,4.51100301742554,-8.95597457885742,20.349645614624,12.0899896621704,51549,47035,49914,46881,0.6,0,0.5,-0.34720504283905,0.668410241603851,0.0322508811950684,-0.120365872979164,0.01911835744977,0.203978702425957,0.587354600429535,0.347342699766159,8.60164928436279,25.2139759063721,2.59184551239014,12.0466594696045,54900,45892,54498,40871,-0.300002544867548,0.51961377298239,0.5,-0.302139222621918,-0.550133466720581,0.0152897806838155,0.116948686540127,-0.0637010261416435,0.0593272745609283,1.62460112571716,-3.76291227340698,4.60083818435669,-5.89952325820923,5.96229696273804,9.21936321258545,59750,49105,51769,54568,-0.299994910243316,-0.519618180809818,0.5
0.869,TAKEOFF,abrupt,1,0.590881288051605,0.00813180301338434,0.00755889946594834,-0.0179584324359894,-0.0520339123904705,0.0752313658595085,1.00314736366272,-2.34245419502258,4.70747184753418,6.88964319229126,25.0200538635254,13.5312557220459,53352,48145,48366,45887,0.6,0,0.5,-0.34720504283905,0.668410241603851,0.0322508811950684,-0.115271747112274,0.0202808417379856,0.209560215473175,0.979597866535187,0.199186235666275,8.84749221801758,8.50019073486328,6.15190029144287,12.073691368103,53277,43036,56367,44839,-0.300002544867548,0.51961377298239,0.5,-0.302139222621918,-0.550133466720581,0.0152897806838155,0.121230520308018,-0.0586667098104954,0.0558922104537487,1.37707710266113,-3.75572156906128,4.73330974578857,-27.9118061065674,-4.86569261550903,6.26592445373535,57645,50542,55192,54465,-0.299994910243316,-0.519618180809818,0.5
0.889,TAKEOFF,abrupt,1,0.590881288051605,0.00813180301338434,0.00755889946594834,0.0114900553599,-0.06917854398489,0.0794630721211433,1.23559939861298,-2.6986072063446,4.97727632522583,22.3879070281982,27.0163707733154,14.108211517334,55340,47991,46704,46030,0.6,0,0.5,-0.354881376028061,0.671140551567078,0.0495613440871239,-0.115286476910114,0.0165897291153669,0.216065719723701,1.10582780838013,0.08086958527565,9.08805465698242,-0.971794843673706,3.48772811889648,10.1885747909546,53277,43036,56367,44839,-0.300002544867548,0.51961377298239,0.5,-0.302139222621918,-0.550133466720581,0.0152897806838155,0.135061904788017,-0.0619730167090893,0.0669606328010559,0.816819608211517,-3.51446914672852,4.85992240905762,-27.9424133300781,-36.9197654724121,4.92578887939453,58118,52809,54885,52849,-0.299994910243316,-0.519618180809818,0.5
0.909,TAKEOFF,abrupt,1,0.59212064743042,0.000792449864093214,0.0143235363066196,0.0213738232851028,-0.0727235153317452,0.0942037031054497,1.65811491012573,-3.15047430992126,5.27888536453247,15.7745208740234,7.35411548614502,15.5025978088379,54237,48550,48571,45526,0.6,0,0.5,-0.354881376028061,0.671140551567078,0.0495613440871239,-0.114892363548279,0.0127361314371228,0.221951425075531,1.0139068365097,0.0183814708143473,9.29104995727539,-14.3271741867065,10.7752647399902,8.86465930938721,53099,45033,56408,44457,-0.300002544867548,0.51961377298239,0.5,-0.302139222621918,-0.550133466720581,0.0152897806838155,0.146002933382988,-0.0622181966900826,0.0944683402776718,0.332495123147964,-2.70067548751831,4.90557861328125,-8.71030998229981,-55.0074119567871,6.16954565048218,58188,54812,55129,50394,-0.299994910243316,-0.519618180809818,0.5
0.929,TAKEOFF,abrupt,1,0.59212064743042,0.000792449864093214,0.0143235363066196,0.0328795202076435,-0.0772790163755417,0.104060396552086,1.97819602489471,-3.30543518066406,5.57733583450317,-0.215029701590538,3.93596172332764,15.344783782959,54512,47610,48792,46659,0.6,0,0.5,-0.354881376028061,0.671140551567078,0.0495613440871239,-0.11422498524189,0.00946897547692061,0.229693338274956,0.756011068820953,-0.190628603100777,9.46233177185059,-20.2637596130371,18.1432056427002,7.16912221908569,53099,45033,56408,44457,-0.300002544867548,0.51961377298239,0.5,-0.302139222621918,-0.550133466720581,0.0152897806838155,0.155286684632301,-0.0624952428042889,0.121133849024773,0.226080819964409,-1.58410012722015,5.0457034111023,-3.43551325798035,-56.0041999816895,9.03304195404053,58150,53517,55602,51488,-0.299994910243316,-0.519618180809818,0.5
0.949,TAKEOFF,abrupt,1,0.59212064743042,0.000792449864093214,0.0143235363066196,0.0393423773348331,-0.0690739825367928,0.120028324425221,1.870081782341,-3.29267477989197,5.96034145355225,-18.4023208618164,-15.2465686798096,13.69739818573,53820,46926,52333,44334,0.6,0,0.5,-0.354881376028061,0.671140551567078,0.0495613440871239,-0.112870655953884,0.00734743429347873,0.23419563472271,0.399520665407181,-0.524494349956512,9.59720039367676,-14.4975929260254,15.1617221832275,6.10398769378662,52483,44295,56775,46025,-0.300002544867548,0.51961377298239,0.5,-0.29127699136734,-0.553106904029846,0.0223303381353617,0.158321648836136,-0.0574738681316376,0.135488390922546,0.103555977344513,-0.457077294588089,5.22235918045044,-15.7489061355591,-43.6997680664063,9.1294469833374,58423,52081,55721,53106,-0.299994910243316,-0.519618180809818,0.5
0.969,TAKEOFF,abrupt,1,0.59212064743042,0.000792449864093214,0.0143235363066196,0.0518680661916733,-0.0746371522545815,0.130669742822647,1.49287593364716,-3.00555467605591,6.2318696975708,-37.237117767334,-27.7833118438721,14.5531444549561,53055,45759,53263,46090,0.6,0,0.5,-0.354881376028061,0.671140551567078,0.0495613440871239,-0.0696870312094688,-0.0114336777478457,0.212453216314316,0.339685797691345,-1.16142237186432,9.66765594482422,-4.11927795410156,21.6730365753174,5.05230474472046,55581,44457,54841,47885,-0.300002544867548,0.51961377298239,0.5,-0.29127699136734,-0.553106904029846,0.0223303381353617,0.155095770955086,-0.05394371971488,0.152465656399727,-0.221514508128166,0.446577727794647,5.39948892593384,-20.7212715148926,-31.0816974639893,6.16671466827393,58218,52013,55925,53579,-0.299994910243316,-0.519618180809818,0.5
0.989,TAKEOFF,abrupt,1,0.59212064743042,0.000792449864093214,0.0143235363066196,0.0477048419415951,-0.0882464051246643,0.148994699120522,0.808774650096893,-2.33572292327881,6.48891878128052,-50.3031578063965,-39.1540908813477,14.1638078689575,51665,46648,54879,44919,0.6,0,0.5,-0.358729034662247,0.668399751186371,0.0669390484690666,-0.0650552287697792,-0.0117733823135495,0.217815175652504,0.161592066287994,-1.56742751598358,9.82942485809326,-0.467595607042313,18.3755073547363,3.27662539482117,53868,44467,55911,47999,-0.300002544867548,0.51961377298239,0.5,-0.29127699136734,-0.553106904029846,0.0223303381353617,0.152560994029045,-0.0528729259967804,0.174398526549339,-0.688272714614868,1.04250133037567,5.52200078964233,-29.738187789917,-27.6740226745605,6.6961874961853,57686,51728,56755,53620,-0.299994910243316,-0.519618180809818,0.5
1.009,TAKEOFF,abrupt,1,0.592967450618744,-0.00634324084967375,0.028785465285182,0.0570682920515537,-0.0907882302999496,0.161848276853561,-0.183822467923164,-1.55774652957916,6.77292060852051,-56.9017448425293,-49.0673713684082,13.1106996536255,50440,45890,56212,45739,0.6,0,0.5,-0.358729034662247,0.668399751186371,0.0669390484690666,-0.0646077319979668,0.00864201039075851,0.253263831138611,0.126674011349678,-1.97030198574066,9.86401748657227,2.51699757575989,13.015588760376,-1.35093331336975,54629,46090,54152,48031,-0.300002544867548,0.51961377298239,0.5,-0.29127699136734,-0.553106904029846,0.0223303381353617,0.147635027766228,-0.0500346124172211,0.197003424167633,-1.25589323043823,1.62165784835815,5.67180395126343,-18.2837829589844,-28.1744918823242,7.70038795471191,59101,51877,55375,53260,-0.299994910243316,-0.519618180809818,0.5
1.029,TAKEOFF,abrupt,1,0.592967450618744,-0.00634324084967375,0.028785465285182,0.05861696600914,-0.0793089121580124,0.176168069243431,-1.36928236484528,-0.547656357288361,7.09598445892334,-42.619068145752,-53.260124206543,12.6469764709473,50544,47493,56317,44101,0.6,0,0.5,-0.358729034662247,0.668399751186371,0.0669390484690666,-0.0557225048542023,0.0116574810817838,0.263752400875092,0.20629970729351,-2.27536129951477,9.85169887542725,16.3915786743164,10.951587677002,-2.04230570793152,54216,44884,54608,49290,-0.300002544867548,0.51961377298239,0.5,-0.29127699136734,-0.553106904029846,0.0223303381353617,0.140377447009087,-0.0455585680902004,0.217733681201935,-1.56017792224884,2.15047407150269,5.8320631980896,-0.663323998451233,-22.478458404541,7.24012899398804,59694,53054,54736,52024,-0.299994910243316,-0.519618180809818,0.5
1.049,TAKEOFF,abrupt,1,0.592967450618744,-0.00634324084967375,0.028785465285182,0.0609169825911522,-0.0747571736574173,0.192166745662689,-2.16611695289612,0.470731317996979,7.37863254547119,-14.4510326385498,-38.4869346618652,11.01051902771,52283,48395,55034,43097,0.6,0,0.5,-0.358729034662247,0.668399751186371,0.0669390484690666,-0.0462957322597504,0.0133455507457256,0.27058133482933,0.431035488843918,-2.49846267700195,9.86695194244385,20.6252937316895,-1.050950050354,-2.59831237792969,53172,48385,55544,46431,-0.300002544867548,0.51961377298239,0.5,-0.277637481689453,-0.556989014148712,0.0405944772064686,0.130491226911545,-0.0396237075328827,0.236776366829872,-1.6072496175766,2.59781217575073,5.9801926612854,2.23032140731812,-20.6166210174561,6.30044889450073,59344,53143,55195,51960,-0.299994910243316,-0.519618180809818,0.5
1.069,TAKEOFF,abrupt,1,0.592967450618744,-0.00634324084967375,0.028785465285182,0.0871226042509079,-0.0709725394845009,0.220283791422844,-2.33510160446167,1.01627242565155,7.55855417251587,13.3847351074219,-16.4664783477783,10.1068677902222,53999,49599,52127,43661,0.6,0,0.5,-0.358729034662247,0.668399751186371,0.0669390484690666,-0.0403818227350712,0.0181098710745573,0.284846305847168,0.793731331825256,-2.43311333656311,9.86065864562988,13.6151561737061,-11.8033504486084,-3.18556642532349,53172,48385,55544,46431,-0.300002544867548,0.51961377298239,0.5,-0.277637481689453,-0.556989014148712,0.0405944772064686,0.115738160908222,-0.0439925640821457,0.254626870155334,-1.49239158630371,3.04098606109619,6.05722904205322,2.81119537353516,-23.4163360595703,5.87881183624268,58268,53723,56496,51264,-0.299994910243316,-0.519618180809818,0.5
1.089,TAKEOFF,abrupt,1,0.592967450618744,-0.00634324084967375,0.028785465285182,0.0846555009484291,-0.0669555813074112,0.228197857737541,-2.01328682899475,1.31144416332245,7.76136445999146,29.5205116271973,-2.05913591384888,9.21587467193604,55484,49342,51224,43052,0.6,0,0.5,-0.36544144153595,0.674080908298492,0.0989081114530563,-0.0221282858401537,0.00869022868573666,0.283401012420654,1.11852216720581,-2.26262760162354,9.78274250030518,10.4298458099365,-7.23456478118897,-3.69025468826294,53924,47865,55227,46513,-0.300002544867548,0.51961377298239,0.5,-0.277637481689453,-0.556989014148712,0.0405944772064686,0.103276997804642,-0.039773240685463,0.272800475358963,-1.42666709423065,3.58630108833313,6.20134496688843,3.46844983100891,-31.9956455230713,6.60276651382446,58307,54233,56623,50441,-0.299994910243316,-0.519618180809818,0.5
1.109,TAKEOFF,abrupt,1,0.603911876678467,-0.0132066756486893,0.0502994507551193,0.0789273083209991,-0.0598671659827232,0.244314253330231,-1.40182816982269,1.33327865600586,7.85401725769043,26.3566093444824,2.16816687583923,7.86712837219238,55443,50056,49915,44132,0.6,0,0.5,-0.36544144153595,0.674080908298492,0.0989081114530563,-0.0111980652436614,0.00466537848114967,0.287934482097626,1.34026372432709,-2.21199774742126,9.66019344329834,1.51368165016174,0.662980377674103,-3.93528628349304,54644,47094,54861,47953,-0.300002544867548,0.51961377298239,0.5,-0.277637481689453,-0.556989014148712,0.0405944772064686,0.0888597965240479,-0.036108635365963,0.288122862577438,-1.39104473590851,4.22924375534058,6.34422874450684,-2.60353255271912,-29.3514499664307,4.04778528213501,58014,53683,56803,51313,-0.299994910243316,-0.519618180809818,0.5
1.129,TAKEOFF,abrupt,1,0.603911876678467,-0.0132066756486893,0.0502994507551193,0.0674789100885391,-0.0328924357891083,0.26046696305275,-1.0670964717865,1.34320247173309,7.9710111618042,11.0835647583008,-8.18798828125,7.51094007492065,53848,49391,51293,45680,0.6,0,0.5,-0.36544144153595,0.674080908298492,0.0989081114530563,0.00108563620597124,-0.000533375714439899,0.295197367668152,1.32126474380493,-2.25093984603882,9.58257102966309,-8.58199977874756,-0.268026471138,-2.87851428985596,54475,46288,55206,49170,-0.300002544867548,0.51961377298239,0.5,-0.277637481689453,-0.556989014148712,0.0405944772064686,0.0726635009050369,-0.0328692607581615,0.29664471745491,-1.4546571969986,4.75084447860718,6.44256019592285,-6.12514591217041,-8.87330627441406,2.44597005844116,58974,52134,55895,53119,-0.299994910243316,-0.519618180809818,0.5
1.149,TAKEOFF,abrupt,1,0.603911876678467,-0.0132066756486893,0.0502994507551193,0.0652441829442978,-0.0323632135987282,0.274229347705841,-0.91564017534256,1.49388313293457,8.0512809753418,-10.6752662658691,-5.12426567077637,8.69627666473389,53735,47018,53222,46020,0.6,0,0.5,-0.36544144153595,0.674080908298492,0.0989081114530563,0.0105495136231184,-0.00343444966711104,0.303502261638641,1.16168749332428,-2.2276508808136,9.52459239959717,-8.17703437805176,-9.00768280029297,-3.22902202606201,53897,47227,55995,48333,-0.300002544867548,0.51961377298239,0.5,-0.268885970115662,-0.562204658985138,0.0683149248361588,0.0550147816538811,-0.0295239649713039,0.304592996835709,-1.58138132095337,4.87793445587158,6.49323511123657,-8.98064422607422,2.67633032798767,0.105006858706474,59185,51932,55531,53783,-0.299994910243316,-0.519618180809818,0.5
1.169,TAKEOFF,abrupt,1,0.603911876678467,-0.0132066756486893,0.0502994507551193,0.0589437298476696,-0.0320016071200371,0.286727011203766,-0.958972930908203,1.68858397006989,8.15729999542236,-13.5817832946777,0.125923633575439,7.8655366897583,53192,46958,53082,47229,0.6,0,0.5,-0.36544144153595,0.674080908298492,0.0989081114530563,0.0212070122361183,-0.00694110803306103,0.315493673086166,1.01264703273773,-2.083500623703,9.47117137908936,-5.29040575027466,-14.9512910842896,-3.27122950553894,53902,46750,56088,49052,-0.300002544867548,0.51961377298239,0.5,-0.268885970115662,-0.562204658985138,0.0683149248361588,0.0370067954063416,-0.0256717149168253,0.313536942005157,-1.77287745475769,4.78455257415772,6.49256896972656,-11.2219295501709,10.3611640930176,-0.233307898044586,58579,52325,56394,53521,-0.299994910243316,-0.519618180809818,0.5
1.189,TAKEOFF,abrupt,1,0.603911876678467,-0.0132066756486893,0.0502994507551193,0.037536695599556,-0.0420186407864094,0.293847322463989,-1.33554828166962,1.6583663225174,8.3857946395874,-15.2493505477905,-7.41992616653442,7.11389255523682,53573,48592,53964,44160,0.6,0,0.5,-0.363049119710922,0.673849880695343,0.125947773456573,0.0258379150182009,-0.00660155806690455,0.330694854259491,0.905400991439819,-1.78014469146729,9.43959426879883,-4.368736743927,-15.5162601470947,-3.72785019874573,53686,47976,55900,48597,-0.300002544867548,0.51961377298239,0.5,-0.268885970115662,-0.562204658985138,0.0683149248361588,0.0242209415882826,-0.0236261505633593,0.316121071577072,-1.99377155303955,4.53228759765625,6.43394708633423,-14.5238180160522,17.9285984039307,-0.638761401176453,58650,52011,55517,55363,-0.299994910243316,-0.519618180809818,0.5
1.209,TAKEOFF,abrupt,1,0.6032355427742,-0.01613774523139,0.0797352194786072,0.030936922878027,-0.0384187586605549,0.303335845470428,-1.60996913909912,1.65100252628326,8.48927879333496,-12.7996301651001,-8.26529884338379,8.46116161346436,53604,48381,54122,44504,0.6,0,0.5,-0.363049119710922,0.673849880695343,0.125947773456573,0.0406574308872223,-0.0143169555813074,0.34153014421463,0.915793418884277,-1.56121826171875,9.32359027862549,-4.47471809387207,-11.1711664199829,-2.86478590965271,52938,45909,56946,49780,-0.300002544867548,0.51961377298239,0.5,-0.268885970115662,-0.562204658985138,0.0683149248361588,0.00621989788487554,-0.017850561067462,0.325522214174271,-2.2570104598999,4.15879678726196,6.34164381027222,-6.71358823776245,28.5135746002197,-2.05397963523865,59498,51503,54876,55658,-0.299994910243316,-0.519618180809818,0.5
1.229,TAKEOFF,abrupt,1,0.6032355427742,-0.01613774523139,0.0797352194786072,0.0360016189515591,-0.0371331870555878,0.309584081172943,-1.87154281139374,1.79054760932922,8.59788513183594,-8.99239158630371,-3.99536824226379,7.86956787109375,54204,48308,53699,44865,0.6,0,0.5,-0.363049119710922,0.673849880695343,0.125947773456573,0.0455667674541473,-0.0162062831223011,0.358991682529449,0.847491562366486,-1.3428897857666,9.2324743270874,-2.57349133491516,-2.97700476646423,-5.2622275352478,53812,47421,55654,49536,-0.300002544867548,0.51961377298239,0.5,-0.268885970115662,-0.562204658985138,0.0683149248361588,0.0297592114657164,-0.029517563059926,0.360796213150024,-2.20078873634338,3.33379602432251,6.24184274673462,3.15232944488525,21.7848644256592,-2.23985743522644,59945,52631,53740,53717,-0.299994910243316,-0.519618180809818,0.5
1.249,TAKEOFF,abrupt,1,0.6032355427742,-0.01613774523139,0.0797352194786072,0.0258329901844263,-0.0193887446075678,0.320228487253189,-2.12987017631531,1.84993255138397,8.73910903930664,-3.30841255187988,-1.18820440769196,6.8164381980896,53448,48361,54358,45219,0.6,0,0.5,-0.363049119710922,0.673849880695343,0.125947773456573,0.0498964004218578,-0.0174969211220741,0.374964535236359,0.670936346054077,-1.19484305381775,9.20234107971191,-2.56672883033752,-7.74541711807251,-4.54380607604981,53697,46212,55218,50361,-0.300002544867548,0.51961377298239,0.5,-0.257482320070267,-0.569022953510284,0.107605315744877,0.022718857973814,-0.0237028542906046,0.369386911392212,-2.10553288459778,2.87764191627502,6.14975547790527,6.14712905883789,12.003303527832,-3.54198384284973,59308,52345,54391,54284,-0.299994910243316,-0.519618180809818,0.5
1.269,TAKEOFF,abrupt,1,0.6032355427742,-0.01613774523139,0.0797352194786072,0.0216056238859892,-0.0142873879522085,0.329241693019867,-2.18151712417603,1.86072015762329,8.87413692474365,8.42786407470703,3.14855933189392,6.21754503250122,54855,48586,52941,44897,0.6,0,0.5,-0.363049119710922,0.673849880695343,0.125947773456573,0.0469440147280693,-0.0113077023997903,0.389999002218246,0.552910268306732,-1.08100736141205,9.1016321182251,-8.66091918945313,-6.01639461517334,-5.43173122406006,53697,46212,55218,50361,-0.300002544867548,0.51961377298239,0.5,-0.257482320070267,-0.569022953510284,0.107605315744877,0.0157963000237942,-0.0167623329907656,0.366278320550919,-1.97593879699707,2.65350747108459,6.04834175109863,4.98703002929688,-1.22219228744507,-5.62222576141357,58394,53908,55374,53354,-0.299994910243316,-0.519618180809818,0.5
1.289,TAKEOFF,abrupt,1,0.6032355427742,-0.01613774523139,0.0797352194786072,0.0138835348188877,-0.00767200300469995,0.3364038169384,-2.02447986602783,1.78096044063568,8.99538612365723,15.9346752166748,5.37657594680786,7.15280103683472,54801,48890,52892,44312,0.6,0,0.5,-0.359638005495071,0.673493802547455,0.15860940515995,0.0722985714673996,-0.0268055610358715,0.389248013496399,0.525842189788818,-1.0848662853241,8.93318367004395,-5.61995697021484,-6.50135469436646,-5.14908599853516,52936,45637,56263,49412,-0.300002544867548,0.51961377298239,0.5,-0.257482320070267,-0.569022953510284,0.107605315744877,-0.00564390327781439,-0.00524797663092613,0.362898141145706,-1.94116187095642,2.81899952888489,5.92336177825928,-0.440084517002106,-11.6772146224976,-5.69419479370117,58098,53066,56249,53780,-0.299994910243316,-0.519618180809818,0.5
1.309,TAKEOFF,abrupt,1,0.602873086929321,-0.0128841083496809,0.112471722066402,-0.0118257068097591,0.0164491552859545,0.339554697275162,-1.89966976642609,1.75044631958008,9.16680145263672,14.8458652496338,8.92490768432617,5.0582766532898,54213,48526,53421,44705,0.6,0,0.5,-0.359638005495071,0.673493802547455,0.15860940515995,0.0763472467660904,-0.0279772840440273,0.401967912912369,0.416244924068451,-0.932996213436127,8.82500171661377,-4.5912561416626,-8.2707462310791,-5.70748662948608,52971,47524,54891,48260,-0.300002544867548,0.51961377298239,0.5,-0.257482320070267,-0.569022953510284,0.107605315744877,-0.0206412021070719,0.00266120326705277,0.366304725408554,-1.9844309091568,3.08304286003113,5.8283429145813,-7.33618783950806,-13.3380699157715,-6.69432926177979,57069,53270,57115,53617,-0.299994910243316,-0.519618180809818,0.5
1.329,TAKEOFF,abrupt,1,0.602873086929321,-0.0128841083496809,0.112471722066402,-0.0289655830711126,0.0300408229231834,0.34544312953949,-1.63711190223694,1.56588208675385,9.30514526367188,17.2823104858398,12.8203706741333,4.52729558944702,54027,48764,53431,44360,0.6,0,0.5,-0.359638005495071,0.673493802547455,0.15860940515995,0.0797463655471802,-0.0288857817649841,0.414556860923767,0.333300113677979,-0.73968493938446,8.71919250488281,-3.93932175636292,-7.9641637802124,-4.51120138168335,52971,47524,54891,48260,-0.300002544867548,0.51961377298239,0.5,-0.257482320070267,-0.569022953510284,0.107605315744877,-0.0189594049006701,0.000689819804392755,0.369790017604828,-2.0466296672821,3.26677584648132,5.66352653503418,-6.85651397705078,-8.39240837097168,-7.30601692199707,57566,53448,56358,53415,-0.299994910243316,-0.519618180809818,0.5
1.349,TAKEOFF,abrupt,1,0.602873086929321,-0.0128841083496809,0.112471722066402,-0.0357849970459938,0.0352304205298424,0.35583034157753,-1.18876767158508,1.22082841396332,9.3220386505127,13.0341367721558,15.2623319625855,3.82150650024414,54515,47594,52562,45550,0.6,0,0.5,-0.359638005495071,0.673493802547455,0.15860940515995,0.0751813948154449,-0.0280128642916679,0.431281179189682,0.0480310879647732,-0.336100101470947,8.6895637512207,-0.656369924545288,-14.7693662643433,-6.74309015274048,50824,45917,55103,48821,-0.300002544867548,0.51961377298239,0.5,-0.263019174337387,-0.565724551677704,0.141460075974464,-0.0338522270321846,0.00607613660395145,0.38389790058136,-2.15779733657837,3.3987889289856,5.52302169799805,-3.25186157226562,1.89210879802704,-6.96322584152222,58159,53165,55282,53207,-0.299994910243316,-0.519618180809818,0.5
1.369,TAKEOFF,abrupt,1,0.602873086929321,-0.0128841083496809,0.112471722066402,-0.0307063460350037,0.028384642675519,0.376779437065125,-0.888981938362122,0.90823882818222,9.33994102478027,10.7956562042236,13.8417768478394,3.85362911224365,53981,47643,52472,45025,0.6,0,0.5,-0.359638005495071,0.673493802547455,0.15860940515995,0.056539174169302,-0.00821473821997643,0.451121747493744,-0.0260051973164082,-0.0654271915555,8.57878589630127,-6.49553823471069,-14.1838932037354,-4.7558069229126,52167,44828,54776,47383,-0.300002544867548,0.51961377298239,0.5,-0.263019174337387,-0.565724551677704,0.141460075974464,-0.0455737598240376,0.0186479538679123,0.389761596918106,-2.22461628913879,3.3177285194397,5.41006278991699,0.847743988037109,12.3054141998291,-6.72289133071899,58429,51760,54648,54317,-0.299994910243316,-0.519618180809818,0.5
1.389,TAKEOFF,abrupt,1,0.602873086929321,-0.0128841083496809,0.112471722066402,-0.0326508618891239,0.0256338510662317,0.391675353050232,-0.696340978145599,0.670169711112976,9.34895515441895,4.33838939666748,9.39352416992188,2.86075186729431,53463,47500,52637,44593,0.6,0,0.5,-0.3485267162323,0.668846189975739,0.205672919750214,0.0692327693104744,-0.0243749041110277,0.455769300460815,-0.015132213011384,0.14909616112709,8.40936660766602,-3.88443756103516,-10.6406316757202,-4.2718939781189,52445,43289,54000,48057,-0.300002544867548,0.51961377298239,0.5,-0.263019174337387,-0.565724551677704,0.141460075974464,-0.050015352666378,0.0195070691406727,0.399647265672684,-2.10532140731812,3.02264595031738,5.25599527359009,6.16178941726685,17.7303333282471,-5.64868259429932,59021,51544,53470,54086,-0.299994910243316,-0.519618180809818,0.5
1.409,TAKEOFF,abrupt,1,0.599494934082031,-0.0120127107948065,0.15401117503643,-0.0371138080954552,0.0228366442024708,0.406687825918198,-0.669359505176544,0.555653512477875,9.4319543838501,-1.15704882144928,5.08595132827759,2.06583499908447,52612,48543,52920,42882,0.6,0,0.5,-0.3485267162323,0.668846189975739,0.205672919750214,0.0738342329859734,-0.0264641009271145,0.458604663610458,-0.0551963187754154,0.274889558553696,8.2641716003418,-3.7905375957489,-2.84263229370117,-3.09508728981018,52445,43289,54000,48057,-0.300002544867548,0.51961377298239,0.5,-0.263019174337387,-0.565724551677704,0.141460075974464,-0.0751073509454727,0.0322286523878574,0.410822927951813,-2.01510405540466,2.708829164505,5.12123012542725,10.213451385498,19.1461219787598,-5.28290367126465,58061,52481,54129,52697,-0.299994910243316,-0.519618180809818,0.5
1.429,TAKEOFF,abrupt,1,0.599494934082031,-0.0120127107948065,0.15401117503643,-0.0433162152767181,0.0263869054615498,0.407761245965958,-0.700913608074188,0.491254776716232,9.45896434783936,-2.5678219795227,1.2245819568634,0.814090192317963,52588,47293,52740,44307,0.6,0,0.5,-0.3485267162323,0.668846189975739,0.205672919750214,0.0756389796733856,-0.0261195916682482,0.460227072238922,-0.0500693768262863,0.352645009756088,8.13962745666504,3.8399224281311,-4.71828937530518,-3.68126511573791,51330,44707,53561,47207,-0.300002544867548,0.51961377298239,0.5,-0.263019174337387,-0.565724551677704,0.141460075974464,-0.0859642699360848,0.0357714220881462,0.418077200651169,-1.81177222728729,2.30766654014587,4.99959707260132,9.77174663543701,16.8620738983154,-5.69097661972046,58333,52010,53281,52835,-0.299994910243316,-0.519618180809818,0.5
1.449,TAKEOFF,abrupt,1,0.599494934082031,-0.0120127107948065,0.15401117503643,-0.0468996874988079,0.0286507662385702,0.409841954708099,-0.770793378353119,0.461319446563721,9.4848804473877,-3.02385592460632,1.78781509399414,-0.776428401470184,52545,47601,52220,44275,0.6,0,0.5,-0.3485267162323,0.668846189975739,0.205672919750214,0.0576351992785931,-0.0143495965749025,0.474888771772385,-0.122994385659695,0.561702907085419,8.09287166595459,3.14887976646423,-6.17495965957642,-4.11340618133545,50716,45766,54096,44390,-0.300002544867548,0.51961377298239,0.5,-0.272678643465042,-0.560073137283325,0.181938648223877,-0.094327338039875,0.04130544885993,0.425038635730743,-1.59516620635986,1.98839068412781,4.88425397872925,12.0324068069458,10.8028039932251,-5.60355854034424,57246,51981,54072,52505,-0.299994910243316,-0.519618180809818,0.5
1.469,TAKEOFF,abrupt,1,0.599494934082031,-0.0120127107948065,0.15401117503643,-0.0497064031660557,0.0306748803704977,0.410797029733658,-0.79403692483902,0.424833208322525,9.47269248962402,3.39179873466492,-0.637235581874847,-1.40607416629791,52059,47841,52455,43882,0.6,0,0.5,-0.3485267162323,0.668846189975739,0.205672919750214,0.0557003319263458,-0.0141820590943098,0.478920608758926,-0.0862848460674286,0.692435324192047,8.00876903533936,2.28045344352722,-10.7086458206177,-4.30192041397095,51054,43583,53545,45774,-0.300002544867548,0.51961377298239,0.5,-0.272678643465042,-0.560073137283325,0.181938648223877,-0.0910906046628952,0.0513631850481033,0.43070775270462,-1.40603506565094,1.71064591407776,4.79676723480225,12.1798343658447,5.45847511291504,-4.71321678161621,57294,51328,53584,52711,-0.299994910243316,-0.519618180809818,0.5
1.489,TAKEOFF,abrupt,1,0.599494934082031,-0.0120127107948065,0.15401117503643,-0.0521705858409405,0.0325633883476257,0.413469761610031,-0.735715687274933,0.420602053403854,9.43968868255615,5.61105489730835,1.62614715099335,-3.22791409492493,52066,48097,52173,43389,0.6,0,0.5,-0.34242582321167,0.66861480474472,0.252103567123413,0.05341437458992,-0.0141952857375145,0.480479329824448,-0.187944486737251,0.944652795791626,7.99695253372192,-1.54265546798706,-5.18393754959106,-2.07022333145142,50298,44376,52513,45568,-0.300002544867548,0.51961377298239,0.5,-0.272678643465042,-0.560073137283325,0.181938648223877,-0.104234874248505,0.0659563541412354,0.433379620313644,-1.278240442276,1.61540722846985,4.69554328918457,7.67254447937012,11.276123046875,-5.39042091369629,56458,51743,54144,51965,-0.299994910243316,-0.519618180809818,0.5
1.509,TAKEOFF,abrupt,1,0.591260075569153,-0.00907125044614077,0.192914977669716,-0.0542551055550575,0.0341720022261143,0.414697170257568,-0.634756684303284,0.357508420944214,9.38102245330811,7.35847234725952,8.76287746429443,-1.8983553647995,52287,47852,51852,43312,0.6,0,0.5,-0.34242582321167,0.66861480474472,0.252103567123413,0.0513157770037651,-0.0141007704660296,0.480988830327988,-0.141285300254822,0.977325081825256,7.93992948532105,3.67090845108032,-1.77979815006256,-4.97083854675293,50452,42717,53096,45399,-0.300002544867548,0.51961377298239,0.5,-0.272678643465042,-0.560073137283325,0.181938648223877,-0.089968629181385,0.057487465441227,0.437628298997879,-0.991545677185059,1.24820113182068,4.58753967285156,9.62509250640869,12.7073640823364,-5.49348831176758,57164,51408,52834,51923,-0.299994910243316,-0.519618180809818,0.5
1.529,TAKEOFF,abrupt,1,0.591260075569153,-0.00907125044614077,0.192914977669716,-0.0560381710529327,0.0354011990129948,0.416367441415787,-0.452677756547928,0.182785287499428,9.33956050872803,12.4466505050659,10.7451868057251,-4.59317684173584,52728,47783,51052,43314,0.6,0,0.5,-0.34242582321167,0.66861480474472,0.252103567123413,0.0460082925856113,-0.0173726044595242,0.477438032627106,0.0267727803438902,1.00426733493805,7.82166862487793,7.95982503890991,-5.93698453903198,-2.64338111877441,51078,44089,52305,44236,-0.300002544867548,0.51961377298239,0.5,-0.272678643465042,-0.560073137283325,0.181938648223877,-0.0943271294236183,0.0604206286370754,0.440198630094528,-0.777271389961243,0.999618530273438,4.47745561599731,10.5871315002441,13.6481504440308,-4.74883460998535,57026,50418,52604,52439,-0.299994910243316,-0.519618180809818,0.5
1.549,TAKEOFF,abrupt,1,0.591260075569153,-0.00907125044614077,0.192914977669716,-0.0572030693292618,0.035817589610815,0.416608452796936,-0.187154665589333,-0.0975120067596436,9.23866748809814,9.49398136138916,17.984769821167,-3.83268141746521,52517,48169,50584,43282,0.6,0,0.5,-0.34242582321167,0.66861480474472,0.252103567123413,0.0469383113086224,-0.0200098883360624,0.468474745750427,0.164152383804321,1.09162378311157,7.73276901245117,4.3893780708313,0.886750936508179,-4.29349136352539,51078,44089,52305,44236,-0.300002544867548,0.51961377298239,0.5,-0.278481960296631,-0.552976965904236,0.22513335943222,-0.0977235808968544,0.062658466398716,0.441519051790237,-0.564927756786346,0.739564895629883,4.38320636749268,11.656867980957,12.3912286758423,-4.86814165115356,56908,50911,52336,51567,-0.299994910243316,-0.519618180809818,0.5
1.569,TAKEOFF,abrupt,1,0.591260075569153,-0.00907125044614077,0.192914977669716,-0.0550687462091446,0.0334179699420929,0.419719040393829,0.0223354808986187,-0.408018529415131,9.1549711227417,12.6399850845337,11.2217035293579,-6.53995370864868,52173,48384,50994,42110,0.6,0,0.5,-0.34242582321167,0.66861480474472,0.252103567123413,0.0426000915467739,-0.0191976334899664,0.463338613510132,0.219061836600304,1.06674420833588,7.65205955505371,4.050621509552,0.35584768652916,-5.70928287506104,51221,43457,51604,44266,-0.300002544867548,0.51961377298239,0.5,-0.278481960296631,-0.552976965904236,0.22513335943222,-0.107958495616913,0.0799911320209503,0.436688274145126,-0.447286993265152,0.587867796421051,4.3143801689148,13.3947658538818,7.60352659225464,-4.93646049499512,56355,50898,52686,51491,-0.299994910243316,-0.519618180809818,0.5
1.589,TAKEOFF,abrupt,1,0.591260075569153,-0.00907125044614077,0.192914977669716,-0.0559941455721855,0.0332548283040524,0.415567755699158,0.248312264680862,-0.745496809482574,9.00636386871338,2.63091254234314,16.8116893768311,-6.61470985412598,52709,46786,50241,44022,0.6,0,0.5,-0.339058429002762,0.668085217475891,0.295050770044327,0.0340924821794033,-0.0160445850342512,0.462809354066849,0.259645462036133,0.992125988006592,7.55084991455078,-1.02050244808197,2.61148715019226,-5.6379861831665,50932,43944,51566,43622,-0.300002544867548,0.51961377298239,0.5,-0.278481960296631,-0.552976965904236,0.22513335943222,-0.12531989812851,0.0628843978047371,0.442115753889084,-0.0680214762687683,0.5611532330513,4.2021632194519,13.9963026046753,4.55814838409424,-4.72259998321533,56146,51603,52593,50478,-0.299994910243316,-0.519618180809818,0.5
1.609,TAKEOFF,abrupt,1,0.586975336074829,-0.00768393371254206,0.23553155362606,-0.0537142381072044,0.0328899882733822,0.411776453256607,0.254209369421005,-1.00417292118073,8.95108890533447,-4.17144250869751,14.5976934432983,-6.21284818649292,52121,46052,50723,44692,0.6,0,0.5,-0.339058429002762,0.668085217475891,0.295050770044327,0.030856765806675,-0.0173443406820297,0.454888612031937,0.249159157276154,0.947986543178558,7.44249486923218,-4.30432558059692,2.73591017723083,-5.76017999649048,50932,43944,51566,43622,-0.300002544867548,0.51961377298239,0.5,-0.278481960296631,-0.552976965904236,0.22513335943222,-0.129141882061958,0.0637177750468254,0.439420938491821,0.197873175144196,0.461215645074844,4.08821773529053,11.2074089050293,8.29520702362061,-4.89702939987183,56317,51589,51782,50117,-0.299994910243316,-0.519618180809818,0.5
1.629,TAKEOFF,abrupt,1,0.586975336074829,-0.00768393371254206,0.23553155362606,-0.0591977126896381,0.0358227901160717,0.399875819683075,0.152055367827415,-1.23427093029022,8.83338356018066,-8.14786815643311,8.83365535736084,-7.21458196640015,51723,46364,51182,44476,0.6,0,0.5,-0.339058429002762,0.668085217475891,0.295050770044327,0.0454369708895683,-0.0298358965665102,0.431712299585342,0.277218401432037,0.765865683555603,7.27578926086426,-3.98382902145386,1.75624847412109,-6.26742649078369,50388,43349,52005,44519,-0.300002544867548,0.51961377298239,0.5,-0.278481960296631,-0.552976965904236,0.22513335943222,-0.125983312726021,0.0598970428109169,0.440422415733337,0.477173328399658,0.260762333869934,3.96139478683472,12.1480855941772,9.06078624725342,-5.84290933609009,56308,50816,51249,50706,-0.299994910243316,-0.519618180809818,0.5
1.649,TAKEOFF,abrupt,1,0.586975336074829,-0.00768393371254206,0.23553155362606,-0.0551773756742477,0.0358218513429165,0.395461201667786,0.00873110257089138,-1.39636945724487,8.68918132781982,-5.72585344314575,6.68419170379639,-7.89659547805786,51364,45738,51261,45249,0.6,0,0.5,-0.339058429002762,0.668085217475891,0.295050770044327,0.0504460856318474,-0.0338481031358242,0.414907336235046,0.133016392588615,0.776535451412201,7.15872716903687,-3.98334336280823,2.11484551429749,-6.552978515625,50289,42863,51814,44965,-0.300002544867548,0.51961377298239,0.5,-0.291475713253021,-0.549617111682892,0.270210027694702,-0.126586407423019,0.0580710060894489,0.435671389102936,0.697847008705139,0.0509645715355873,3.84534883499146,9.06828784942627,12.6778354644775,-5.35399055480957,56001,49936,51273,51170,-0.299994910243316,-0.519618180809818,0.5
1.669,TAKEOFF,abrupt,1,0.586975336074829,-0.00768393371254206,0.23553155362606,-0.0506455413997173,0.0363654382526875,0.391609162092209,-0.1083614975214,-1.48665547370911,8.53406143188477,-5.42977380752564,1.84577965736389,-8.1405143737793,51072,46563,51353,44338,0.6,0,0.5,-0.339058429002762,0.668085217475891,0.295050770044327,0.0319059677422047,-0.0241828635334969,0.414498329162598,-0.0177900642156601,0.789611279964447,7.09163856506348,-3.12705087661743,1.07867097854614,-7.82071208953857,49607,42800,52106,44660,-0.300002544867548,0.51961377298239,0.5,-0.291475713253021,-0.549617111682892,0.270210027694702,-0.120419181883335,0.0530899874866009,0.427448809146881,0.88056093454361,-0.276637226343155,3.76160359382629,4.1462345123291,17.335147857666,-4.75204563140869,56177,49488,50889,51416,-0.299994910243316,-0.519618180809818,0.5
1.689,TAKEOFF,abrupt,1,0.586975336074829,-0.00768393371254206,0.23553155362606,-0.0240530446171761,0.0229582469910383,0.402789652347565,-0.0463985577225685,-1.63016486167908,8.33373832702637,0.527938723564148,-1.43439149856567,-7.91959381103516,51777,46574,50100,43759,0.6,0,0.5,-0.333166897296906,0.665967464447022,0.336759626865387,0.0317427143454552,-0.0249021854251623,0.401766866445541,-0.000998811097815633,0.709558188915253,6.88844442367554,-4.68647146224976,-1.20915961265564,-6.40419483184814,49803,43125,52111,44676,-0.300002544867548,0.51961377298239,0.5,-0.291475713253021,-0.549617111682892,0.270210027694702,-0.11905874311924,0.0501961000263691,0.420348793268204,0.952254772186279,-0.596394658088684,3.67948198318481,0.11370525509119,14.765679359436,-4.38844680786133,56033,49756,50902,50914,-0.299994910243316,-0.519618180809818,0.5
1.709,TAKEOFF,abrupt,1,0.576529741287231,-0.0119494451209903,0.274320483207703,-0.0519840009510517,-0.0083412891253829,0.386541903018951,0.165144935250282,-1.32987356185913,8.18350315093994,3.52862286567688,0.554108142852783,-8.06905078887939,51573,47366,50569,42950,0.6,0,0.5,-0.333166897296906,0.665967464447022,0.336759626865387,0.0369196236133575,-0.028586357831955,0.38271701335907,-0.106325805187225,0.737417638301849,6.77332305908203,-2.95631003379822,-0.635077178478241,-7.91205835342407,49803,43125,52111,44676,-0.300002544867548,0.51961377298239,0.5,-0.291475713253021,-0.549617111682892,0.270210027694702,-0.124216124415398,0.069943867623806,0.402726173400879,0.784409582614899,-0.83126974105835,3.63563680648804,0.385581821203232,12.0539541244507,-3.7863392829895,55383,49567,51800,51205,-0.299994910243316,-0.519618180809818,0.5
1.729,TAKEOFF,abrupt,1,0.576529741287231,-0.0119494451209903,0.274320483207703,-0.0474890395998955,-0.00824557244777679,0.381735920906067,0.217275604605675,-1.32891118526459,8.03231716156006,2.5880331993103,1.50925266742706,-7.09878873825073,52058,47253,49864,43043,0.6,0,0.5,-0.333166897296906,0.665967464447022,0.336759626865387,0.0287191234529018,-0.0263056885451078,0.376915991306305,-0.0579349100589752,0.721631348133087,6.56123113632202,1.31462597846985,0.182789117097855,-8.01673412322998,50166,42975,51407,45171,-0.300002544867548,0.51961377298239,0.5,-0.291475713253021,-0.549617111682892,0.270210027694702,-0.109896883368492,0.0616156347095966,0.391868263483047,0.899687170982361,-1.08624351024628,3.56194925308228,3.06419634819031,11.1542272567749,-3.03527903556824,56000,49542,50448,51687,-0.299994910243316,-0.519618180809818,0.5
1.749,TAKEOFF,abrupt,1,0.576529741287231,-0.0119494451209903,0.274320483207703,-0.0164698343724012,-0.0161532945930958,0.36344513297081,0.330580979585648,-1.51384747028351,7.83879661560059,-3.55558180809021,4.02120494842529,-8.53323745727539,51973,47005,49751,43613,0.6,0,0.5,-0.333166897296906,0.665967464447022,0.336759626865387,0.0306093711405992,-0.0273926183581352,0.36046501994133,-0.05069774761796,0.737796485424042,6.42194223403931,3.35335922241211,0.194083333015442,-6.8521671295166,49952,44151,51476,44150,-0.300002544867548,0.51961377298239,0.5,-0.301279574632645,-0.544322371482849,0.310757547616959,-0.106080763041973,0.0475562177598476,0.385495454072952,1.02630364894867,-1.32091283798218,3.49582648277283,10.290623664856,8.6693639755249,-1.83667171001434,56301,50600,50063,50339,-0.299994910243316,-0.519618180809818,0.5
1.769,TAKEOFF,abrupt,1,0.576529741287231,-0.0119494451209903,0.274320483207703,-0.0164698343724012,-0.0161532945930958,0.36344513297081,0.0747126862406731,-1.68527579307556,7.67902851104736,-6.8048882484436,9.74355697631836,-8.15761947631836,51386,47685,48888,44827,0.6,0,0.5,-0.333166897296906,0.665967464447022,0.336759626865387,0.0209303870797157,-0.0227963086217642,0.355336368083954,-0.0259325001388788,0.764318108558655,6.35060262680054,0.397216230630875,-2.02936005592346,-7.17044734954834,50093,43881,51193,44167,-0.300002544867548,0.51961377298239,0.5,-0.301279574632645,-0.544322371482849,0.310757547616959,-0.101656079292297,0.0429669506847858,0.386723190546036,1.26455581188202,-1.50054454803467,3.44686698913574,13.9767217636108,5.98974275588989,-2.03078365325928,56687,50637,49619,49392,-0.299994910243316,-0.519618180809818,0.5
1.789,TAKEOFF,abrupt,1,0.576529741287231,-0.0119494451209903,0.274320483207703,-0.0134308245033026,0.00720110908150673,0.368714392185211,-0.192911058664322,-1.89059770107269,7.57284355163574,-11.9109706878662,7.17089509963989,-8.28028678894043,50930,46249,50426,44193,0.6,0,0.5,-0.332821130752563,0.665657341480255,0.375268459320068,0.0143802585080266,-0.0182087998837233,0.350609838962555,0.0184768810868263,0.785825312137604,6.20283699035645,0.861393868923187,0.366065442562103,-7.04499912261963,49551,44816,51628,43231,-0.300002544867548,0.51961377298239,0.5,-0.301279574632645,-0.544322371482849,0.310757547616959,-0.106333091855049,0.0445456691086292,0.365385115146637,1.45784461498261,-1.53793478012085,3.39406061172485,7.23429584503174,2.03584980964661,-2.59254097938538,55820,50314,50995,50182,-0.299994910243316,-0.519618180809818,0.5
1.809,TAKEOFF,abrupt,1,0.575449824333191,-0.00941400229930878,0.312963247299194,-0.0178114250302315,0.0116211427375674,0.365711808204651,-0.399039626121521,-2.00137734413147,7.40319871902466,-11.86399269104,4.02000856399536,-8.07122707366943,50962,45252,50235,45036,0.6,0,0.5,-0.332821130752563,0.665657341480255,0.375268459320068,0.0118532124906778,-0.0184946693480015,0.340673595666885,0.0519733354449272,0.783808052539825,6.06249189376831,0.417285770177841,2.97853302955627,-7.71925640106201,50218,44483,50302,45985,-0.300002544867548,0.51961377298239,0.5,-0.301279574632645,-0.544322371482849,0.310757547616959,-0.100667469203472,0.0392600744962692,0.35258412361145,1.55635809898376,-1.54068040847778,3.30277037620544,-3.13651371002197,-5.14084768295288,-3.6717963218689,54541,50316,52408,50436,-0.299994910243316,-0.519618180809818,0.5
1.829,TAKEOFF,abrupt,1,0.575449824333191,-0.00941400229930878,0.312963247299194,-0.0110920090228319,0.0139326974749565,0.358777463436127,-0.660489320755005,-2.10626769065857,7.22983264923096,-7.25942373275757,0.59660792350769,-8.510009765625,50821,45683,50159,44734,0.6,0,0.5,-0.332821130752563,0.665657341480255,0.375268459320068,0.0201640110462904,-0.0263263154774904,0.316903650760651,0.142945855855942,0.656738460063934,5.94452714920044,2.02879333496094,3.2152099609375,-6.68282604217529,49785,44338,51793,44130,-0.300002544867548,0.51961377298239,0.5,-0.301279574632645,-0.544322371482849,0.310757547616959,-0.0964262187480927,0.0357009768486023,0.339238286018372,1.47361695766449,-1.43156886100769,3.22211527824402,-8.60266399383545,-6.61716842651367,-3.92735195159912,54403,50232,52594,50743,-0.299994910243316,-0.519618180809818,0.5
1.849,TAKEOFF,abrupt,1,0.575449824333191,-0.00941400229930878,0.312963247299194,-0.0024664499796927,0.017880741506815,0.352378755807877,-0.859371840953827,-2.12580800056458,7.05429315567017,-9.48949718475342,-3.18154454231262,-8.20744037628174,49507,46673,49943,45472,0.6,0,0.5,-0.332821130752563,0.665657341480255,0.375268459320068,0.019006384536624,-0.0256189499050379,0.305806636810303,0.154670208692551,0.610382735729218,5.8242506980896,-0.161735475063324,0.413323074579239,-7.34827899932861,50429,43892,51042,44798,-0.300002544867548,0.51961377298239,0.5,-0.316693663597107,-0.536527395248413,0.346314609050751,-0.0913835018873215,0.0321029461920261,0.329969972372055,1.28173804283142,-1.29643785953522,3.1639187335968,-11.0288686752319,-6.08188772201538,-3.55427408218384,54724,49707,52281,51177,-0.299994910243316,-0.519618180809818,0.5
1.869,TAKEOFF,abrupt,1,0.575449824333191,-0.00941400229930878,0.312963247299194,0.00663672108203173,0.0228421706706285,0.346543282270432,-1.02877199649811,-2.05433177947998,6.89216089248657,-2.45262408256531,-8.62199592590332,-9.37038040161133,50121,47125,49306,44814,0.6,0,0.5,-0.332821130752563,0.665657341480255,0.375268459320068,0.0170617736876011,-0.0263199172914028,0.294748097658157,0.158506900072098,0.599656462669373,5.68952178955078,-1.17470967769623,0.391492992639542,-6.42926597595215,49688,42960,51832,45608,-0.300002544867548,0.51961377298239,0.5,-0.316693663597107,-0.536527395248413,0.346314609050751,-0.0870678722858429,0.0283523350954056,0.318903923034668,1.05245530605316,-1.19376862049103,3.095627784729,-10.0577726364136,-1.15491080284119,-2.35539412498474,55111,50139,51958,50755,-0.299994910243316,-0.519618180809818,0.5
1.889,TAKEOFF,abrupt,1,0.575449824333191,-0.00941400229930878,0.312963247299194,0.0343942195177078,0.0213714335113764,0.336282432079315,-0.964063346385956,-1.97871685028076,6.66667222976685,4.20622253417969,-8.92368412017822,-7.53328609466553,50428,46415,49929,43615,0.6,0,0.5,-0.329401284456253,0.662930727005005,0.406125128269196,0.015169145539403,-0.0270308889448643,0.28375580906868,0.120072960853577,0.593689441680908,5.55898427963257,-2.42156028747559,-0.659547746181488,-6.60701942443848,49967,43847,51539,44957,-0.300002544867548,0.51961377298239,0.5,-0.316693663597107,-0.536527395248413,0.346314609050751,-0.0791250765323639,0.0204796623438597,0.299182623624802,0.88053971529007,-1.21102452278137,3.01564025878906,-7.88338899612427,1.36980044841766,-2.5886127948761,55102,50350,52230,50968,-0.299994910243316,-0.519618180809818,0.5
1.909,TAKEOFF,abrupt,1,0.582735419273376,-0.00548393605276942,0.350594878196716,0.0343942195177078,0.0213714335113764,0.336282432079315,-0.984952628612518,-1.78677940368652,6.55082035064697,6.45169258117676,-13.4534845352173,-5.66523599624634,50385,46926,50139,42924,0.6,0,0.5,-0.329401284456253,0.662930727005005,0.406125128269196,0.0133079765364528,-0.0276333354413509,0.27208748459816,0.0721080899238586,0.590412735939026,5.43357133865356,-2.31856918334961,-0.346724808216095,-5.91417217254639,49922,43727,51656,45167,-0.300002544867548,0.51961377298239,0.5,-0.316693663597107,-0.536527395248413,0.346314609050751,-0.0749988332390785,0.0179330203682184,0.290455847978592,0.728203117847443,-1.26853597164154,2.96341180801392,-5.76694965362549,4.28412771224976,-2.75959634780884,55535,49731,51743,51590,-0.299994910243316,-0.519618180809818,0.5
1.929,TAKEOFF,abrupt,1,0.582735419273376,-0.00548393605276942,0.350594878196716,0.0363711640238762,0.0537525340914726,0.331264823675156,-0.896598041057587,-1.48025035858154,6.51566934585571,8.47499370574951,-13.566123008728,-4.89282035827637,50576,46635,49740,42923,0.6,0,0.5,-0.329401284456253,0.662930727005005,0.406125128269196,0.0130619248375297,-0.0266663152724504,0.260739296674728,0.00048673219862394,0.564974784851074,5.32876348495483,-2.47407150268555,1.80684530735016,-5.73414039611816,49896,44601,51643,44499,-0.300002544867548,0.51961377298239,0.5,-0.316693663597107,-0.536527395248413,0.346314609050751,-0.0706574395298958,0.0158578082919121,0.282240062952042,0.621893882751465,-1.37409818172455,2.92105793952942,-2.9587299823761,5.64032173156738,-1.56273901462555,55688,50760,51711,50502,-0.299994910243316,-0.519618180809818,0.5
1.949,TAKEOFF,abrupt,1,0.582735419273376,-0.00548393605276942,0.350594878196716,0.0363711640238762,0.0537525340914726,0.331264823675156,-0.775608658790588,-1.17710530757904,6.49045372009277,7.50951480865479,-14.6377201080322,-3.29411339759827,50310,46503,49969,42778,0.6,0,0.5,-0.329401284456253,0.662930727005005,0.406125128269196,0.0112186474725604,-0.026900252327323,0.250061541795731,-0.0495502799749374,0.542275130748749,5.21298980712891,-3.89461302757263,1.99065017700195,-5.63711643218994,50591,43762,51503,46033,-0.300002544867548,0.51961377298239,0.5,-0.316367894411087,-0.540072500705719,0.375643521547317,-0.0132408458739519,-0.0177381429821253,0.274974495172501,0.849652588367462,-1.81726610660553,2.91418480873108,4.71973609924316,3.34274697303772,1.17588829994202,57208,49914,50091,50970,-0.299994910243316,-0.519618180809818,0.5
1.969,TAKEOFF,abrupt,1,0.582735419273376,-0.00548393605276942,0.350594878196716,0.0377541035413742,0.0616917125880718,0.32565239071846,-0.619327247142792,-0.903551399707794,6.42408275604248,7.50544738769531,-12.844349861145,-3.32252788543701,49961,46614,50323,42334,0.6,0,0.5,-0.329401284456253,0.662930727005005,0.406125128269196,0.0235070213675499,-0.0348793305456638,0.227862730622292,-0.0463998019695282,0.413587272167206,5.07352590560913,-3.59163689613342,-1.13856077194214,-4.7534031867981,50633,43564,51607,46357,-0.300002544867548,0.51961377298239,0.5,-0.316367894411087,-0.540072500705719,0.375643521547317,-0.0114268464967608,0.00390649819746613,0.259163856506348,0.793262243270874,-1.8529691696167,2.93925786018372,7.42238426208496,1.85006594657898,0.900562167167664,57289,50671,50275,50504,-0.299994910243316,-0.519618180809818,0.5
1.989,TAKEOFF,abrupt,1,0.582735419273376,-0.00548393605276942,0.350594878196716,0.0873800963163376,0.0591531209647656,0.306992471218109,-0.383516699075699,-0.903488516807556,6.29153299331665,8.39105701446533,-8.60823726654053,-3.01828932762146,51040,45616,49205,43563,0.6,0,0.5,-0.325132191181183,0.658984363079071,0.429440647363663,0.0243270825594664,-0.0343548655509949,0.209058940410614,-0.117907360196114,0.411035627126694,4.91398525238037,-3.30639886856079,-1.85884261131287,-4.6981520652771,50428,45312,51920,45164,-0.300002544867548,0.51961377298239,0.5,-0.316367894411087,-0.540072500705719,0.375643521547317,-0.0052866511978209,0.00153270270675421,0.248336881399155,0.95716804265976,-1.85729050636292,2.96316576004028,4.2344012260437,-3.33307528495789,0.703349530696869,56511,50541,51417,50745,-0.299994910243316,-0.519618180809818,0.5
2.009,TAKEOFF,abrupt,1,0.593554615974426,0.00275283539667726,0.383534401655197,0.0873800963163376,0.0591531209647656,0.306992471218109,-0.182217165827751,-0.786380171775818,6.16396999359131,7.13221216201782,-9.56815814971924,-1.84241437911987,51030,45466,49233,43624,0.6,0,0.5,-0.325132191181183,0.658984363079071,0.429440647363663,0.0224068723618984,-0.0332645885646343,0.200647681951523,-0.21351033449173,0.511359095573425,4.90029907226563,-4.80477285385132,-2.88946676254272,-4.09460973739624,50477,44532,51889,45752,-0.300002544867548,0.51961377298239,0.5,-0.316367894411087,-0.540072500705719,0.375643521547317,0.000852619938086718,-0.00132334453519434,0.237993136048317,1.04040098190308,-1.72620129585266,2.98293948173523,1.23087751865387,-11.1671028137207,2.2196958065033,56294,51086,52017,50104,-0.299994910243316,-0.519618180809818,0.5
2.029,TAKEOFF,abrupt,1,0.593554615974426,0.00275283539667726,0.383534401655197,0.0920353680849075,0.0607275031507015,0.285083681344986,-0.0762461274862289,-0.592544734477997,6.13992977142334,4.14602470397949,-10.6806268692017,-0.0456692278385162,50610,45421,49873,43488,0.6,0,0.5,-0.325132191181183,0.658984363079071,0.429440647363663,0.018765626475215,-0.0315288789570332,0.196024551987648,-0.274178206920624,0.592692911624908,4.87441539764404,0.734598577022553,-8.41669654846191,-5.47044563293457,50282,45211,51896,44942,-0.300002544867548,0.51961377298239,0.5,-0.316367894411087,-0.540072500705719,0.375643521547317,0.00617727311328054,-0.023336248472333,0.240908443927765,1.21641385555267,-1.44369459152222,3.01669859886169,1.69120097160339,-18.3587436676025,3.91308879852295,56487,51427,51706,49160,-0.299994910243316,-0.519618180809818,0.5
2.049,TAKEOFF,abrupt,1,0.593554615974426,0.00275283539667726,0.383534401655197,0.0920353680849075,0.0607275031507015,0.285083681344986,-0.142217516899109,-0.259569197893143,6.22052335739136,1.58829343318939,-15.096830368042,0.0857674703001976,50217,45938,50379,42875,0.6,0,0.5,-0.325132191181183,0.658984363079071,0.429440647363663,0.0144484834745526,-0.0282709281891584,0.192904248833656,-0.257912307977676,0.714352548122406,4.77544546127319,-1.33981168270111,-4.34816932678223,-4.48211193084717,50663,45288,51769,45205,-0.300002544867548,0.51961377298239,0.5,-0.32179382443428,-0.536319971084595,0.39945188164711,-0.00273369764909148,-0.0144392028450966,0.222610890865326,1.14801824092865,-1.00066077709198,3.11687517166138,-1.10775089263916,-15.5820188522339,3.74716258049011,56435,50975,52208,49941,-0.299994910243316,-0.519618180809818,0.5
2.069,TAKEOFF,abrupt,1,0.593554615974426,0.00275283539667726,0.383534401655197,0.0803386494517326,0.0768492594361305,0.268419474363327,-0.0884203389286995,0.0949449688196182,6.2182936668396,0.705738961696625,-22.3588619232178,-0.658242762088776,49718,45777,51103,43226,0.6,0,0.5,-0.325132191181183,0.658984363079071,0.429440647363663,0.0207238309085369,-0.0343328379094601,0.178463444113731,-0.169715210795403,0.737297415733337,4.61960315704346,1.83841598033905,-0.838812589645386,-3.17869186401367,50153,44354,52332,46116,-0.300002544867548,0.51961377298239,0.5,-0.32179382443428,-0.536319971084595,0.39945188164711,0.000500731461215764,-0.0179835669696331,0.212550386786461,1.0857001543045,-0.76520699262619,3.19376015663147,-6.79133653640747,-6.8828067779541,3.96483302116394,56557,49987,52262,51011,-0.299994910243316,-0.519618180809818,0.5
2.089,TAKEOFF,abrupt,1,0.593554615974426,0.00275283539667726,0.383534401655197,0.080344021320343,0.0771900936961174,0.257426768541336,-0.107409454882145,0.598503768444061,6.29020309448242,3.22760009765625,-21.1528129577637,-0.0502185076475143,50117,46219,50817,42812,0.6,0,0.5,-0.325412422418594,0.657976150512695,0.449365079402924,0.0183243490755558,-0.0339117906987667,0.171566739678383,-0.194060981273651,0.761799693107605,4.55077648162842,-1.51601219177246,-3.66500544548035,-3.69562458992004,50697,45484,51969,45398,-0.300002544867548,0.51961377298239,0.5,-0.32179382443428,-0.536319971084595,0.39945188164711,5.26583971804939E-05,-0.026356628164649,0.204607501626015,0.953891813755035,-0.621131420135498,3.24017834663391,-8.94319152832031,-3.22218012809753,2.43432402610779,56878,50344,51827,50894,-0.299994910243316,-0.519618180809818,0.5
2.109,TAKEOFF,abrupt,1,0.598949551582336,0.0126253897324204,0.408726841211319,0.0722249671816826,0.0820964798331261,0.24277301132679,-0.0114829074591398,1.01499605178833,6.35177898406982,7.29107904434204,-16.1180305480957,-0.0200690533965826,50386,46673,50780,42443,0.6,0,0.5,-0.325412422418594,0.657976150512695,0.449365079402924,0.019656490534544,-0.0339090563356876,0.158315345644951,-0.197406888008118,0.812753915786743,4.40527009963989,0.70694774389267,-5.40876579284668,-3.88803100585937,50697,45484,51969,45398,-0.300002544867548,0.51961377298239,0.5,-0.32179382443428,-0.536319971084595,0.39945188164711,0.00179734826087952,-0.0300793312489986,0.197306394577026,0.737081408500671,-0.59920734167099,3.26171779632568,-12.713939666748,0.164524972438812,2.05788683891296,56623,50091,52230,51210,-0.299994910243316,-0.519618180809818,0.5
2.129,TAKEOFF,abrupt,1,0.598949551582336,0.0126253897324204,0.408726841211319,0.0670887902379036,0.0824475139379501,0.229287996888161,0.318148553371429,1.54710066318512,6.40213489532471,11.9077672958374,-8.89350891113281,0.522892951965332,50257,45804,51150,43563,0.6,0,0.5,-0.325412422418594,0.657976150512695,0.449365079402924,0.0170795861631632,-0.0316889546811581,0.150006383657455,-0.2154191583395,0.909034967422485,4.26677703857422,-2.68624210357666,-0.361653119325638,-2.14360165596008,50284,46007,52513,45176,-0.300002544867548,0.51961377298239,0.5,-0.32179382443428,-0.536319971084595,0.39945188164711,0.00390357780270278,-0.0322060734033585,0.19038137793541,0.491406351327896,-0.596715092658997,3.29979133605957,-11.1464719772339,-1.4409476518631,1.9432715177536,56360,50153,52656,51215,-0.299994910243316,-0.519618180809818,0.5
2.149,TAKEOFF,abrupt,1,0.598949551582336,0.0126253897324204,0.408726841211319,0.0361097455024719,0.0587057881057262,0.223456203937531,0.571410000324249,1.7066342830658,6.4456524848938,13.9134178161621,-4.40937900543213,1.19338917732239,51352,47697,50060,41096,0.6,0,0.5,-0.325412422418594,0.657976150512695,0.449365079402924,0.0140964090824127,-0.031219495460391,0.143836185336113,-0.239346891641617,0.9324049949646,4.23952627182007,-4.24870777130127,0.565844118595123,-3.0077052116394,50586,44540,52243,46723,-0.300002544867548,0.51961377298239,0.5,-0.322480410337448,-0.540441572666168,0.41973802447319,0.00595791591331363,-0.0335476994514465,0.18440742790699,0.265253454446793,-0.573679029941559,3.33592462539673,-10.1380929946899,-2.8657820224762,1.28997695446014,56561,50381,52444,51079,-0.299994910243316,-0.519618180809818,0.5
2.169,TAKEOFF,abrupt,1,0.598949551582336,0.0126253897324204,0.408726841211319,0.0313678570091724,0.0557026863098145,0.212175384163856,0.870258510112762,1.77271735668182,6.50766038894653,14.3982009887695,1.75553703308105,0.243152901530266,51661,46469,50688,41617,0.6,0,0.5,-0.325412422418594,0.657976150512695,0.449365079402924,0.000293001969112083,-0.0272405035793781,0.145833894610405,-0.401885986328125,1.03646075725555,4.12853908538818,-5.73087882995606,1.53067362308502,-3.28330659866333,50586,44540,52243,46723,-0.300002544867548,0.51961377298239,0.5,-0.322480410337448,-0.540441572666168,0.41973802447319,0.00786170177161694,-0.03416533395648,0.179238900542259,0.083293505012989,-0.500688791275024,3.36361980438232,-8.17210674285889,-3.25330138206482,1.58510625362396,56817,50115,52274,51323,-0.299994910243316,-0.519618180809818,0.5
2.189,TAKEOFF,abrupt,1,0.598949551582336,0.0126253897324204,0.408726841211319,0.026673810556531,0.0524166747927666,0.201381549239159,1.1366138458252,1.70292735099792,6.54091310501099,10.346565246582,5.7095046043396,-0.233422860503197,51643,47988,50713,39899,0.6,0,0.5,-0.324820190668106,0.6552973985672,0.46465077996254,-0.00322570814751089,-0.0262322276830673,0.13984403014183,-0.515569269657135,1.01838958263397,3.98647212982178,-5.7485294342041,2.35751509666443,-3.34682679176331,50964,45951,51874,45463,-0.300002544867548,0.51961377298239,0.5,-0.322480410337448,-0.540441572666168,0.41973802447319,0.000113144313218072,-0.0212264657020569,0.173755392432213,-0.162985354661942,-0.348482638597488,3.40959024429321,-5.78853464126587,-6.75034332275391,0.875782668590546,56355,50534,52872,51033,-0.299994910243316,-0.519618180809818,0.5
2.209,TAKEOFF,abrupt,1,0.598963558673859,0.0139598958194256,0.43152117729187,0.0222436636686325,0.0484457425773144,0.192757487297058,1.33048319816589,1.57492995262146,6.56624984741211,4.89092969894409,11.5226879119873,0.237035796046257,52238,44695,50365,43778,0.6,0,0.5,-0.324820190668106,0.6552973985672,0.46465077996254,-0.00875144451856613,-0.0206074584275484,0.13083116710186,-0.559378623962402,0.975290536880493,3.91412973403931,-0.815287530422211,5.66710996627808,-3.81257128715515,49929,44322,52900,47038,-0.300002544867548,0.51961377298239,0.5,-0.322480410337448,-0.540441572666168,0.41973802447319,0.00112354301381856,-0.0205329861491919,0.168857097625732,-0.261427104473114,-0.201411351561546,3.42879319190979,-4.02890110015869,-6.95388841629028,1.59788334369659,56470,50999,52911,50495,-0.299994910243316,-0.519618180809818,0.5
2.231,TAKEOFF,abrupt,1,0.598963558673859,0.0139598958194256,0.43152117729187,0.0174395479261875,0.0443718545138836,0.187099888920784,1.38075041770935,1.34177768230438,6.57082271575928,-1.83075666427612,10.1595153808594,-0.754410624504089,51157,46336,50672,43134,0.6,0,0.5,-0.324820190668106,0.6552973985672,0.46465077996254,-0.0121716931462288,-0.0189571343362331,0.126264989376068,-0.633300423622131,0.887626588344574,3.77618551254272,-1.60956287384033,6.95288610458374,-3.20100355148315,50399,45558,52318,46239,-0.300002544867548,0.51961377298239,0.5,-0.322480410337448,-0.540441572666168,0.41973802447319,0.00162730074953288,-0.019570704549551,0.164458453655243,-0.320192754268646,-0.0697683244943619,3.45171618461609,-4.36179685592651,-5.22532463073731,1.43993091583252,56457,50576,52975,50954,-0.299994910243316,-0.519618180809818,0.5
2.249,TAKEOFF,abrupt,1,0.598963558673859,0.0139598958194256,0.43152117729187,0.0313538610935211,0.0360382832586765,0.173763662576675,1.34421336650848,0.960495114326477,6.52017688751221,-4.61640548706055,11.3183898925781,-0.365998655557632,51544,45689,50490,44099,0.6,0,0.5,-0.324820190668106,0.6552973985672,0.46465077996254,-0.0177106577903032,-0.0131668485701084,0.120946928858757,-0.710816740989685,0.864590704441071,3.82479906082153,2.84220838546753,7.75182342529297,-2.81153774261475,50399,45558,52318,46239,-0.300002544867548,0.51961377298239,0.5,-0.324242442846298,-0.541485726833344,0.436010330915451,0.000392412854125723,-0.0247030444443226,0.154706344008446,-0.328549444675446,0.0279540922492743,3.43778109550476,-3.96139788627625,-1.55893003940582,0.358780652284622,56547,50077,52950,51761,-0.299994910243316,-0.519618180809818,0.5
2.269,TAKEOFF,abrupt,1,0.598963558673859,0.0139598958194256,0.43152117729187,0.0285193827003241,0.0312023498117924,0.164700657129288,1.22843658924103,0.757973849773407,6.51749038696289,-3.90895771980286,5.33397388458252,-0.536246001720428,51716,46108,50434,43745,0.6,0,0.5,-0.324820190668106,0.6552973985672,0.46465077996254,-0.0394484773278236,-0.000662640435621142,0.129340156912804,-0.656240224838257,0.68321168422699,3.76292443275452,2.94529390335083,7.52156972885132,-3.1423008441925,50743,44479,52268,46968,-0.300002544867548,0.51961377298239,0.5,-0.324242442846298,-0.541485726833344,0.436010330915451,0.000208405341254547,-0.023544404655695,0.151089385151863,-0.399044305086136,0.039425652474165,3.43811273574829,-4.06218481063843,-0.634456098079681,-0.0604200139641762,56775,50280,52696,51619,-0.299994910243316,-0.519618180809818,0.5
2.289,TAKEOFF,abrupt,1,0.598963558673859,0.0139598958194256,0.43152117729187,0.0358957126736641,0.0251146592199802,0.153437063097954,1.10956168174744,0.623967528343201,6.43323802947998,-8.55087184906006,-0.786011755466461,-0.159213572740555,51290,45846,50987,44347,0.6,0,0.5,-0.329885095357895,0.656882107257843,0.478447079658508,-0.0420513339340687,0.00143513060174882,0.125070855021477,-0.59279477596283,0.52056759595871,3.68852400779724,4.45440340042114,8.18783378601074,-3.59740710258484,49953,44640,52515,46658,-0.300002544867548,0.51961377298239,0.5,-0.324242442846298,-0.541485726833344,0.436010330915451,0.0282800681889057,-0.0400939658284187,0.153097286820412,-0.326589912176132,-0.185659036040306,3.44035315513611,-4.79497194290161,-1.16248202323914,0.712133288383484,57221,50507,52072,51136,-0.299994910243316,-0.519618180809818,0.5
2.31,TAKEOFF,abrupt,1,0.608310222625732,0.0191821344196796,0.447591453790665,0.0342546813189983,0.0210798736661673,0.14589661359787,0.763175010681152,0.75625604391098,6.47167015075684,-6.07210683822632,-10.3878755569458,-2.11271405220032,51176,46781,51811,42557,0.6,0,0.5,-0.329885095357895,0.656882107257843,0.478447079658508,-0.0466468818485737,0.00337826693430543,0.125439405441284,-0.564117431640625,0.475773513317108,3.69223356246948,7.09987306594849,11.4347190856934,-3.26368045806885,49779,45175,52657,46187,-0.300002544867548,0.51961377298239,0.5,-0.324242442846298,-0.541485726833344,0.436010330915451,0.0278460532426834,-0.0361636653542519,0.155272245407105,-0.449323445558548,-0.172177970409393,3.40931940078735,-4.94009685516357,-1.14674019813538,-0.536556243896484,56992,50401,52054,51223,-0.299994910243316,-0.519618180809818,0.5
2.329,TAKEOFF,abrupt,1,0.608310222625732,0.0191821344196796,0.447591453790665,0.0103433448821306,0.0273610316216946,0.143128991127014,0.771846055984497,0.957768440246582,6.44172477722168,-1.08504664897919,-14.1820688247681,-1.94267809391022,50468,47891,51884,42076,0.6,0,0.5,-0.329885095357895,0.656882107257843,0.478447079658508,-0.0482906438410282,0.00518809352070093,0.121541775763035,-0.512066781520844,0.351720988750458,3.71527600288391,7.29136085510254,12.0980129241943,-3.90328168869019,51085,44982,51293,46311,-0.300002544867548,0.51961377298239,0.5,-0.324242442846298,-0.541485726833344,0.436010330915451,0.0283143427222967,-0.0345441810786724,0.150938540697098,-0.565851390361786,-0.150358885526657,3.39659428596497,-8.50023937225342,-3.22080183029175,-0.819395244121552,56642,50288,52491,51377,-0.299994910243316,-0.519618180809818,0.5
2.349,TAKEOFF,abrupt,1,0.608310222625732,0.0191821344196796,0.447591453790665,0.00602410221472383,0.0278881024569273,0.137522265315056,0.705824971199036,1.3697692155838,6.41876697540283,5.55297327041626,-17.2374935150146,-0.636634290218353,51021,48285,51487,41514,0.6,0,0.5,-0.329885095357895,0.656882107257843,0.478447079658508,-0.0552671514451504,0.0124576613306999,0.123479411005974,-0.380322188138962,0.13526850938797,3.63704228401184,3.75027918815613,11.033561706543,-3.35234069824219,50890,44673,51322,46379,-0.300002544867548,0.51961377298239,0.5,-0.317162215709686,-0.547895312309265,0.453029304742813,0.0329569466412067,-0.0344619639217854,0.143649891018868,-0.696425020694733,-0.0955708771944046,3.38201284408569,-6.7240629196167,-10.5549383163452,-0.433795481920242,56234,51384,53141,50360,-0.299994910243316,-0.519618180809818,0.5
2.369,TAKEOFF,abrupt,1,0.608310222625732,0.0191821344196796,0.447591453790665,0.002039416693151,0.025117751210928,0.130963400006294,0.823584794998169,1.66494500637054,6.39428281784058,12.1822862625122,-11.7456350326538,-1.80037379264832,51269,49076,51342,40489,0.6,0,0.5,-0.329885095357895,0.656882107257843,0.478447079658508,-0.0525424294173718,0.0166760459542274,0.117350406944752,-0.307249426841736,-0.125882148742676,3.60726261138916,6.1468243598938,9.69954967498779,-4.23255634307861,51476,45131,50780,46075,-0.300002544867548,0.51961377298239,0.5,-0.317162215709686,-0.547895312309265,0.453029304742813,0.0227607786655426,-0.0143301710486412,0.132809534668922,-0.995473325252533,0.160378023982048,3.40363430976868,-6.17021417617798,-12.386248588562,-1.67463481426239,56059,51106,53484,51047,-0.299994910243316,-0.519618180809818,0.5
2.39,TAKEOFF,abrupt,1,0.608310222625732,0.0191821344196796,0.447591453790665,0.0159826576709747,0.0162254404276609,0.126020073890686,1.07397651672363,1.66485798358917,6.27113771438599,11.4183549880981,-2.87062788009644,-2.09961891174316,51750,47961,50817,42290,0.6,0,0.5,-0.335019588470459,0.659020602703095,0.491132318973541,-0.0508660338819027,0.0177315585315228,0.107878811657429,-0.187740698456764,-0.357868671417236,3.67566013336182,8.61769390106201,9.24179458618164,-4.90133714675903,49901,45232,52456,46158,-0.300002544867548,0.51961377298239,0.5,-0.317162215709686,-0.547895312309265,0.453029304742813,0.0259254854172468,-0.0140074407681823,0.129377231001854,-1.10968375205994,0.347553730010986,3.3831353187561,-6.70771932601929,-6.30607652664185,-1.92131865024567,56274,50163,53237,52003,-0.299994910243316,-0.519618180809818,0.5
2.409,TAKEOFF,abrupt,1,0.611355423927307,0.0173402205109596,0.461562871932983,0.00663050590083003,0.00888683181256056,0.123002946376801,1.26791548728943,1.71268606185913,6.14163255691528,6.16041707992554,6.80563259124756,-1.70033586025238,51941,48110,50560,42212,0.6,0,0.5,-0.335019588470459,0.659020602703095,0.491132318973541,-0.0508293025195599,0.0208944268524647,0.105730853974819,-0.0465623326599598,-0.512094795703888,3.58426713943481,5.83709239959717,2.33338761329651,-4.66438388824463,51555,45041,50694,46495,-0.300002544867548,0.51961377298239,0.5,-0.317162215709686,-0.547895312309265,0.453029304742813,0.019983446225524,0.000116886752948631,0.121106199920177,-1.33982241153717,0.538874566555023,3.3753809928894,-5.48328018188477,-9.4287223815918,-1.66727221012115,56565,49943,53076,52386,-0.299994910243316,-0.519618180809818,0.5
2.429,TAKEOFF,abrupt,1,0.611355423927307,0.0173402205109596,0.461562871932983,-0.00134426506701857,0.00412852363660932,0.121308490633965,1.38907945156097,1.56354784965515,6.05260753631592,3.06976580619812,10.1545686721802,-1.11105597019196,51621,46848,50983,43585,0.6,0,0.5,-0.335019588470459,0.659020602703095,0.491132318973541,-0.0490141063928604,0.021028246730566,0.100909411907196,0.12960809469223,-0.643940687179565,3.58318018913269,9.02869606018066,5.73663997650147,-4.49305582046509,49649,45649,52718,45792,-0.300002544867548,0.51961377298239,0.5,-0.317162215709686,-0.547895312309265,0.453029304742813,0.016999838873744,0.00767912203446031,0.116894818842411,-1.45011138916016,0.677351355552673,3.35039162635803,-0.640833735466003,-1.14096391201019,-1.83070266246796,56502,50402,53287,52024,-0.299994910243316,-0.519618180809818,0.5
2.449,TAKEOFF,abrupt,1,0.611355423927307,0.0173402205109596,0.461562871932983,-0.00399601506069303,-1.97957033378771E-05,0.112200610339642,1.30209624767303,1.33276808261871,6.02734661102295,-3.03815293312073,13.3207883834839,0.296580195426941,52289,46980,50464,43595,0.6,0,0.5,-0.335019588470459,0.659020602703095,0.491132318973541,-0.0443392619490624,0.0185972470790148,0.0982571095228195,0.291177898645401,-0.734686672687531,3.57779741287231,5.94115495681763,-1.71339297294617,-4.86365270614624,49649,45649,52718,45792,-0.300002544867548,0.51961377298239,0.5,-0.317386537790298,-0.54292106628418,0.463347911834717,0.0143895400688052,0.0124731035903096,0.115432232618332,-1.43765771389008,0.711390435695648,3.3131959438324,3.69002437591553,-1.30249679088593,-2.4015634059906,56824,50904,52890,51605,-0.299994910243316,-0.519618180809818,0.5
2.469,TAKEOFF,abrupt,1,0.611355423927307,0.0173402205109596,0.461562871932983,-0.00846077874302864,0.00510002207010984,0.113714128732681,1.25467956066132,1.06047630310059,5.97768640518189,-4.97070550918579,10.7040872573853,0.377155631780624,51717,46083,51058,44433,0.6,0,0.5,-0.339138388633728,0.660811364650726,0.501510977745056,-0.0402163900434971,0.016112707555294,0.0927533656358719,0.443954616785049,-0.751412153244019,3.47337102890015,10.0078248977661,2.53251361846924,-5.52797842025757,50347,45304,52053,46409,-0.300002544867548,0.51961377298239,0.5,-0.317386537790298,-0.54292106628418,0.463347911834717,0.0116856787353754,0.0171397123485804,0.113534830510616,-1.31841802597046,0.71512234210968,3.27183723449707,9.87767696380615,0.294701218605042,-2.32789444923401,56955,50931,52698,51667,-0.299994910243316,-0.519618180809818,0.5
2.489,TAKEOFF,abrupt,1,0.611355423927307,0.0173402205109596,0.461562871932983,-0.0114023257046938,-0.000950895773712546,0.10813669860363,1.20351374149323,0.905915915966034,5.9296760559082,-6.6593713760376,11.0562229156494,1.11312448978424,51206,46614,51617,44023,0.6,0,0.5,-0.339138388633728,0.660811364650726,0.501510977745056,-0.0375929810106754,0.0146293072029948,0.0881631001830101,0.648003935813904,-0.819760680198669,3.44491147994995,5.35306453704834,2.72840070724487,-4.57245111465454,50725,45976,51886,45899,-0.300002544867548,0.51961377298239,0.5,-0.317386537790298,-0.54292106628418,0.463347911834717,0.00902942195534706,0.0212859772145748,0.110978715121746,-1.11677539348602,0.706887006759644,3.22162961959839,11.8694620132446,-0.667019367218018,-2.69749975204468,56958,51569,52644,51160,-0.299994910243316,-0.519618180809818,0.5
2.509,TAKEOFF,abrupt,1,0.612147986888886,0.0188401900231838,0.473264247179031,-0.0142938680946827,-0.00555854290723801,0.100715979933739,1.01625216007233,0.733410775661469,5.94707250595093,-2.84116315841675,9.46499919891357,0.951540350914001,52441,47214,50533,43422,0.6,0,0.5,-0.339138388633728,0.660811364650726,0.501510977745056,-0.0307171698659658,0.00901764910668135,0.0806730017066002,0.770098567008972,-0.875601232051849,3.35135173797607,2.13353490829468,1.65341436862946,-5.07923936843872,49941,45256,52656,46663,-0.300002544867548,0.51961377298239,0.5,-0.317386537790298,-0.54292106628418,0.463347911834717,0.00642832182347775,0.0247317664325237,0.10873356461525,-0.886070132255554,0.718231201171875,3.15454936027527,10.206090927124,0.0121040679514408,-3.93465757369995,56392,51374,53280,51444,-0.299994910243316,-0.519618180809818,0.5
2.529,TAKEOFF,abrupt,1,0.612147986888886,0.0188401900231838,0.473264247179031,-0.0305563751608133,0.00161252473480999,0.0978288352489471,0.840191423892975,0.617822647094727,6.01662540435791,-1.87322628498077,0.952441692352295,1.06180334091187,51637,47710,51369,42497,0.6,0,0.5,-0.339138388633728,0.660811364650726,0.501510977745056,-0.0276101157069206,0.00655726436525583,0.0765057280659676,0.849876582622528,-0.938950002193451,3.32981204986572,-1.33247983455658,2.38823819160461,-3.93632745742798,50368,45199,52665,46690,-0.300002544867548,0.51961377298239,0.5,-0.317386537790298,-0.54292106628418,0.463347911834717,-0.0341759026050568,0.0286891330033541,0.110267482697964,-0.738581478595734,1.05688178539276,3.07824921607971,7.00437307357788,0.126013427972794,-3.73560833930969,56411,51738,53073,51049,-0.299994910243316,-0.519618180809818,0.5
2.549,TAKEOFF,abrupt,1,0.612147986888886,0.0188401900231838,0.473264247179031,-0.0305563751608133,0.00161252473480999,0.0978288352489471,0.778343200683594,0.58484297990799,6.09216785430908,2.68810844421387,-1.49946558475494,-0.327405601739883,52160,46596,51807,42572,0.6,0,0.5,-0.339138388633728,0.660811364650726,0.501510977745056,-0.0184315126389265,-0.000994501868262887,0.0680519789457321,0.798255324363709,-0.962184250354767,3.25808000564575,-3.49086689949036,3.41794443130493,-3.80344295501709,50696,46077,52152,46247,-0.300002544867548,0.51961377298239,0.5,-0.32514414191246,-0.542183697223663,0.475483059883118,-0.0401280485093594,0.0316189154982567,0.108466796576977,-0.598328709602356,1.08419263362885,2.99938178062439,4.61193704605103,3.01062965393066,-3.45836853981018,56463,51133,53071,51765,-0.299994910243316,-0.519618180809818,0.5
2.569,TAKEOFF,abrupt,1,0.612147986888886,0.0188401900231838,0.473264247179031,-0.013208688236773,0.00140645354986191,0.0895769819617271,0.877108752727509,0.561107575893402,6.0106954574585,5.97540521621704,-8.63952350616455,-1.71467876434326,51046,48722,52044,41591,0.6,0,0.5,-0.339138388633728,0.660811364650726,0.501510977745056,-0.009549705311656,-0.00828037317842245,0.0602944456040859,0.767812073230743,-1.02469801902771,3.27381992340088,-3.62642002105713,-2.67965245246887,-4.58571720123291,50696,46077,52152,46247,-0.300002544867548,0.51961377298239,0.5,-0.32514414191246,-0.542183697223663,0.475483059883118,-0.0435622818768024,0.0341091752052307,0.109254576265812,-0.518702566623688,0.979661226272583,2.9425847530365,2.9775710105896,11.8328542709351,-3.43838763237,56854,49905,52433,52860,-0.299994910243316,-0.519618180809818,0.5
2.589,TAKEOFF,abrupt,1,0.612147986888886,0.0188401900231838,0.473264247179031,-0.0214332789182663,-0.00559517601504922,0.0855300650000572,0.969217658042908,0.68870210647583,6.06220531463623,9.36237716674805,-5.84664058685303,-0.479460060596466,51672,49004,51516,41164,0.6,0,0.5,-0.339890867471695,0.659484624862671,0.507317066192627,-0.0059771272353828,-0.0106428293511271,0.0571797005832195,0.711407244205475,-0.992410182952881,3.18251872062683,-3.06465530395508,-4.54897975921631,-4.45671558380127,51137,46114,52019,46445,-0.300002544867548,0.51961377298239,0.5,-0.32514414191246,-0.542183697223663,0.475483059883118,-0.0452118627727032,0.0339493714272976,0.106051914393902,-0.460869073867798,0.679880321025848,2.85077834129333,0.931699454784393,18.1578426361084,-3.07972884178162,56425,49755,53052,52996,-0.299994910243316,-0.519618180809818,0.5
2.609,TAKEOFF,abrupt,1,0.613171398639679,0.0205426774919033,0.483747124671936,-0.0171498041599989,-0.0061830417253077,0.0817407593131065,1.19033980369568,0.741046488285065,5.98126697540283,7.28434467315674,-1.29579246044159,-1.79297173023224,52149,47923,50962,42941,0.6,0,0.5,-0.339890867471695,0.659484624862671,0.507317066192627,2.62593148363521E-05,-0.0160414222627878,0.0495475307106972,0.639575064182282,-0.914947211742401,3.14095401763916,-4.70575618743897,-1.71213614940643,-3.61110520362854,50683,46295,52597,46546,-0.300002544867548,0.51961377298239,0.5,-0.32514414191246,-0.542183697223663,0.475483059883118,-0.0472873374819756,0.0354081839323044,0.104817785322666,-0.443321824073792,0.305218160152435,2.79097461700439,2.64300847053528,20.433708190918,-2.97459936141968,56406,50481,53106,52279,-0.299994910243316,-0.519618180809818,0.5
2.629,TAKEOFF,abrupt,1,0.613171398639679,0.0205426774919033,0.483747124671936,-0.0240377765148878,-0.0118914935737848,0.0789116695523262,1.3088812828064,0.784386336803436,5.99298715591431,3.28759527206421,4.68651151657105,-1.1944123506546,52240,47438,51612,42523,0.6,0,0.5,-0.339890867471695,0.659484624862671,0.507317066192627,0.00328385271131992,-0.0181027688086033,0.047152865678072,0.549212753772736,-0.855626463890076,3.05301237106323,-5.29962587356567,-3.38832139968872,-4.18773365020752,50824,46114,52516,46825,-0.300002544867548,0.51961377298239,0.5,-0.32514414191246,-0.542183697223663,0.475483059883118,-0.0457770377397537,0.0377488024532795,0.109706208109856,-0.40014061331749,-0.0677446946501732,2.75568413734436,4.80057144165039,16.0352840423584,-3.22087740898132,57208,51050,51866,51654,-0.299994910243316,-0.519618180809818,0.5
2.649,TAKEOFF,abrupt,1,0.613171398639679,0.0205426774919033,0.483747124671936,-0.0203719604760408,-0.0123100792989135,0.0725953653454781,1.35599589347839,0.655668795108795,5.95933055877686,-2.51642727851868,8.8928747177124,-1.47390377521515,52641,47458,50592,43647,0.6,0,0.5,-0.339890867471695,0.659484624862671,0.507317066192627,0.0071886838413775,-0.0212610736489296,0.0352107845246792,0.510080397129059,-0.818829715251923,3.12671279907227,-5.94022750854492,-5.79930734634399,-4.08305263519287,50923,46399,52789,46932,-0.300002544867548,0.51961377298239,0.5,-0.328128308057785,-0.538827538490295,0.487163573503494,-0.045350469648838,0.039028987288475,0.108545765280724,-0.247700318694115,-0.34267246723175,2.70087289810181,11.4114465713501,8.44973850250244,-2.70949935913086,56666,51181,52513,51454,-0.299994910243316,-0.519618180809818,0.5
2.669,TAKEOFF,abrupt,1,0.613171398639679,0.0205426774919033,0.483747124671936,-0.0265907198190689,-0.0149420741945505,0.0628847628831863,1.33144652843475,0.491474241018295,5.93572521209717,-5.50927686691284,7.65741062164307,-1.68278396129608,52237,46953,51114,44358,0.6,0,0.5,-0.339248061180115,0.656952381134033,0.508946776390076,0.00994260516017675,-0.0239741634577513,0.0311423689126968,0.407617747783661,-0.711013436317444,3.10325622558594,-6.79796600341797,-6.56762933731079,-4.2847957611084,51146,47129,52688,46381,-0.300002544867548,0.51961377298239,0.5,-0.328128308057785,-0.538827538490295,0.487163573503494,-0.0101936385035515,0.0220765061676502,0.100795045495033,0.114152729511261,-0.744837701320648,2.66399836540222,12.0895090103149,2.13286900520325,-2.77363801002502,57199,50515,51999,52269,-0.299994910243316,-0.519618180809818,0.5
2.689,TAKEOFF,abrupt,1,0.613171398639679,0.0205426774919033,0.483747124671936,-0.0265907198190689,-0.0149420741945505,0.0628847628831863,1.23852944374084,0.410201102495194,5.95881080627441,-7.17778158187866,6.46487474441528,-2.81448245048523,52122,47173,51298,44271,0.6,0,0.5,-0.339248061180115,0.656952381134033,0.508946776390076,0.0121686393395066,-0.0258320067077875,0.027476454153657,0.281139761209488,-0.582847714424133,3.08729672431946,-8.41645431518555,-5.89478588104248,-4.20282030105591,50835,46059,53059,47501,-0.300002544867548,0.51961377298239,0.5,-0.328128308057785,-0.538827538490295,0.487163573503494,-0.00436614127829671,0.0302001722157001,0.094244584441185,0.229177117347717,-0.819145381450653,2.63298320770264,2.90370559692383,-0.602570712566376,-2.13104605674744,56732,50314,52718,52597,-0.299994910243316,-0.519618180809818,0.5
2.709,TAKEOFF,abrupt,1,0.609208285808563,0.0203777458518744,0.49152746796608,-0.0379235930740833,-0.0203196071088314,0.0617387108504772,1.11922812461853,0.297271311283112,5.8959527015686,-9.38235569000244,2.75273036956787,-2.03121900558472,51403,47629,52076,43727,0.6,0,0.5,-0.339248061180115,0.656952381134033,0.508946776390076,0.0139832934364676,-0.0266124457120895,0.0264471545815468,0.126650422811508,-0.448388189077377,3.06723833084106,-9.03467464447022,-3.73327660560608,-3.83136606216431,50835,46059,53059,47501,-0.300002544867548,0.51961377298239,0.5,-0.328128308057785,-0.538827538490295,0.487163573503494,-0.0015660310164094,0.0295002516359091,0.0924317389726639,0.278902769088745,-0.78048700094223,2.58442282676697,-0.0460864529013634,-3.919597864151,-2.35985612869263,56972,51068,52440,51901,-0.299994910243316,-0.519618180809818,0.5
2.729,TAKEOFF,abrupt,1,0.609208285808563,0.0203777458518744,0.49152746796608,-0.0243836287409067,-0.032890684902668,0.0573300719261169,1.03102731704712,0.154740020632744,5.80389022827148,-7.04884481430054,2.26669955253601,-2.96094918251038,52088,47233,51403,44398,0.6,0,0.5,-0.339248061180115,0.656952381134033,0.508946776390076,0.0155042335391045,-0.0264518149197102,0.0294560026377439,-0.0314731523394585,-0.345298945903778,2.98101735115051,-5.5730037689209,-3.29608392715454,-4.50001811981201,51660,46693,52320,46985,-0.300002544867548,0.51961377298239,0.5,-0.328128308057785,-0.538827538490295,0.487163573503494,-0.0087876757606864,0.018134593963623,0.0959586724638939,0.327772349119186,-0.588610589504242,2.51225662231445,-3.13623046875,-9.53444957733154,-3.22258853912354,55920,51682,53346,51276,-0.299994910243316,-0.519618180809818,0.5
2.749,TAKEOFF,abrupt,1,0.609208285808563,0.0203777458518744,0.49152746796608,-0.0160137638449669,-0.0265611410140991,0.0499034561216831,0.804258823394775,0.115802772343159,5.75168085098267,-6.62765264511108,-2.67716073989868,-0.956547498703003,52369,48109,51298,43585,0.6,0,0.5,-0.339248061180115,0.656952381134033,0.508946776390076,0.0235186703503132,-0.0361397266387939,0.0256453119218349,-0.107073038816452,-0.297461539506912,2.83839464187622,-5.93694639205933,-0.447076618671417,-2.92878532409668,51676,45544,52405,48214,-0.300002544867548,0.51961377298239,0.5,-0.324812591075897,-0.539749085903168,0.496396660804749,-0.00690422393381596,0.0171509198844433,0.0940559208393097,0.265841126441956,-0.393060207366943,2.45495867729187,-2.53389263153076,-10.7755870819092,-2.93246912956238,56061,51488,53238,51462,-0.299994910243316,-0.519618180809818,0.5
2.769,TAKEOFF,abrupt,1,0.609208285808563,0.0203777458518744,0.49152746796608,-0.0160137638449669,-0.0265611410140991,0.0499034561216831,0.679540634155273,0.169093742966652,5.74350023269653,-5.9262900352478,-2.47440695762634,-2.63343691825867,51751,48385,51988,43129,0.6,0,0.5,-0.335325598716736,0.650546133518219,0.511425673961639,0.0226873438805342,-0.035383976995945,0.0274364482611418,-0.205699235200882,-0.238667041063309,2.7249321937561,-6.91694211959839,-0.974949955940247,-2.14263844490051,51436,48490,52529,45120,-0.300002544867548,0.51961377298239,0.5,-0.324812591075897,-0.539749085903168,0.496396660804749,-0.0171513259410858,0.0283241476863623,0.0897347405552864,0.124717205762863,-0.136263728141785,2.4191632270813,-3.22597050666809,-5.6009693145752,-3.25800371170044,55785,50819,53574,52239,-0.299994910243316,-0.519618180809818,0.5
2.789,TAKEOFF,abrupt,1,0.609208285808563,0.0203777458518744,0.49152746796608,-0.0290418323129416,-0.0333591029047966,0.0452815666794777,0.54832661151886,0.172634810209274,5.69185161590576,-7.45429801940918,0.622171223163605,-1.30208730697632,51949,47825,51843,43873,0.6,0,0.5,-0.335325598716736,0.650546133518219,0.511425673961639,0.0230602901428938,-0.0349315255880356,0.0280615966767073,-0.26818123459816,-0.200781270861626,2.56740403175354,-7.49112701416016,-4.42553663253784,-3.07521963119507,51805,45541,52228,48359,-0.300002544867548,0.51961377298239,0.5,-0.324812591075897,-0.539749085903168,0.496396660804749,-0.0181747823953629,0.0270477458834648,0.0872028023004532,0.0784403085708618,-0.00252057332545519,2.35048294067383,-0.895130753517151,-3.52431893348694,-3.24954438209534,56337,50716,52986,52438,-0.299994910243316,-0.519618180809818,0.5
