timestamp_sec,flight_state,fault_type,fault_motor_health,cf1_X,cf1_Y,cf1_Z,cf1_VelX,cf1_VelY,cf1_VelZ,cf1_Roll,cf1_Pitch,cf1_Yaw,cf1_GyroX,cf1_GyroY,cf1_GyroZ,cf1_Motor1,cf1_Motor2,cf1_Motor3,cf1_Motor4,cf1_targ_x,cf1_targ_y,cf1_targ_z,cf2_X,cf2_Y,cf2_Z,cf2_VelX,cf2_VelY,cf2_VelZ,cf2_Roll,cf2_Pitch,cf2_Yaw,cf2_GyroX,cf2_GyroY,cf2_GyroZ,cf2_Motor1,cf2_Motor2,cf2_Motor3,cf2_Motor4,cf2_targ_x,cf2_targ_y,cf2_targ_z,cf3_X,cf3_Y,cf3_Z,cf3_VelX,cf3_VelY,cf3_VelZ,cf3_Roll,cf3_Pitch,cf3_Yaw,cf3_GyroX,cf3_GyroY,cf3_GyroZ,cf3_Motor1,cf3_Motor2,cf3_Motor3,cf3_Motor4,cf3_targ_x,cf3_targ_y,cf3_targ_z
0.007,TAKEOFF,abrupt,1.0,0.6135653853416443,0.019970931112766266,-0.0005602523451671004,0.008978125639259815,-0.01573905721306801,-0.0045947362668812275,0.312152624130249,0.2805595397949219,5.007789134979248,0.0193888358771801,0.10411526262760162,0.24936522543430328,0.0,0.0,0.0,0.0,0.6,0.0,0.5,-0.353952556848526,0.6028355360031128,0.002175818430259824,0.008229238912463188,-0.008044678717851639,0.0003554891736712307,0.20686478912830353,-1.4616172313690186,4.728864669799805,-0.14464819431304932,0.19296367466449738,0.20331008732318878,0.0,0.0,0.0,0.0,-0.3000025448675481,0.51961377298239,0.5,-0.37851405143737793,-0.5209702849388123,0.004420567769557238,0.006730449385941029,-0.010155788622796535,0.001407761825248599,0.26807671785354614,-0.012612651102244854,6.173379421234131,-0.011226149275898933,0.051633141934871674,0.09690418094396591,0.0,0.0,0.0,0.0,-0.29999491024331576,-0.5196181808098181,0.5
0.029,TAKEOFF,abrupt,1.0,0.6077823638916016,0.01530911773443222,-0.0007170290919020772,-0.002171263098716736,0.008301842026412487,0.003969785291701555,0.19848868250846863,0.2849952280521393,5.099411487579346,0.1545613706111908,0.021007677540183067,-0.12898562848567963,0.0,0.0,0.0,0.0,0.6,0.0,0.5,-0.3591788411140442,0.6089200377464294,0.0005411537131294608,-0.014050946570932865,0.019621875137090683,-0.0024500982835888863,0.0076618557795882225,-1.3214447498321533,4.815140724182129,-0.17626093327999115,-0.07795345783233643,-0.08142869174480438,0.0,0.0,0.0,0.0,-0.3000025448675481,0.51961377298239,0.5,-0.37851405143737793,-0.5209702849388123,0.004420567769557238,0.007012801244854927,-0.009961838833987713,0.0015359579119831324,0.2673681676387787,-0.01132133323699236,6.173830509185791,-0.11102171242237091,-0.07913980633020401,-0.04758421704173088,0.0,0.0,0.0,0.0,-0.29999491024331576,-0.5196181808098181,0.5
0.047,TAKEOFF,abrupt,1.0,0.6070650815963745,0.0160999558866024,-0.00017218032735399902,-0.0020180342253297567,0.008559859357774258,0.004089116118848324,0.12611785531044006,0.31230056285858154,5.161586284637451,-0.018893824890255928,-0.05283522978425026,0.14138855040073395,0.0,0.0,0.0,0.0,0.6,0.0,0.5,-0.3591788411140442,0.6089200377464294,0.0005411537131294608,0.0168031994253397,-0.015850428491830826,-0.0013402197510004044,0.2936258018016815,-1.539103388786316,4.78336238861084,-0.08457514643669128,-0.06497383117675781,0.07789406925439835,0.0,0.0,0.0,0.0,-0.3000025448675481,0.51961377298239,0.5,-0.37851405143737793,-0.5209702849388123,0.004420567769557238,0.007535307668149471,-0.009910805150866508,0.0014031556202098727,0.2670840919017792,-0.008011497557163239,6.173308849334717,-0.04471766576170921,-0.038954880088567734,-0.10021273046731949,0.0,0.0,0.0,0.0,-0.29999491024331576,-0.5196181808098181,0.5
0.066,TAKEOFF,abrupt,1.0,0.6070650815963745,0.0160999558866024,-0.00017218032735399902,0.037519313395023346,-0.0010205564321950078,0.003799891797825694,0.2321745753288269,0.027884919196367264,5.132256507873535,0.14386631548404694,0.06532052904367447,0.2941228449344635,41238.0,35732.0,40722.0,36921.0,0.6,0.0,0.5,-0.3591788411140442,0.6089200377464294,0.0005411537131294608,0.018149483948946,-0.016644373536109924,-0.001172115677036345,0.29283952713012695,-1.53807532787323,4.788619518280029,-0.08907864987850189,-0.08787987381219864,-0.25564855337142944,43008.0,35275.0,40362.0,39170.0,-0.3000025448675481,0.51961377298239,0.5,-0.3723173439502716,-0.5254285335540771,0.005424474366009235,0.0203553419560194,-0.02121793106198311,0.003560176119208336,0.3587503433227539,-0.09670974314212799,6.239972114562988,-0.016816066578030586,0.042810965329408646,-0.2812490165233612,42595.0,36188.0,40890.0,35938.0,-0.29999491024331576,-0.5196181808098181,0.5
0.086,TAKEOFF,abrupt,1.0,0.6070650815963745,0.0160999558866024,-0.00017218032735399902,0.030605727806687355,0.015354513190686703,0.003726457478478551,0.10337840765714645,0.0719887763261795,5.203201770782471,0.12160739302635193,0.15179413557052612,-0.07389573007822037,41837.0,35902.0,41319.0,37710.0,0.6,0.0,0.5,-0.3591788411140442,0.6089200377464294,0.0005411537131294608,0.024495234712958336,-0.018203040584921837,-0.0069960299879312515,0.3001948595046997,-1.5829888582229614,4.747657299041748,0.7947900295257568,-1.407504916191101,-1.0546056032180786,44937.0,37153.0,41020.0,39286.0,-0.3000025448675481,0.51961377298239,0.5,-0.3723173439502716,-0.5254285335540771,0.005424474366009235,0.020787496119737625,-0.02172769233584404,0.0035846850369125605,0.35864007472991943,-0.09815821051597595,6.239335536956787,0.18253061175346375,0.38393884897232056,-0.47803089022636414,43313.0,36756.0,41098.0,36428.0,-0.29999491024331576,-0.5196181808098181,0.5
0.107,TAKEOFF,abrupt,1.0,0.6070650815963745,0.0160999558866024,-0.00017218032735399902,0.03038810007274151,0.014975154772400856,0.0033980272710323334,0.10095743089914322,0.07662617415189743,5.1861982345581055,-0.27762728929519653,1.009844422340393,0.9067755937576294,43246.0,37258.0,42733.0,39235.0,0.6,0.0,0.5,-0.3556893765926361,0.6043753623962402,0.002375121461227536,0.008348125033080578,-0.008096687495708466,-0.00032846530666574836,0.15571552515029907,-1.3604453802108765,4.867417812347412,-0.6501085758209229,1.4413138628005981,1.8618991374969482,44445.0,38566.0,42194.0,39655.0,-0.3000025448675481,0.51961377298239,0.5,-0.3723173439502716,-0.5254285335540771,0.005424474366009235,0.019752461463212967,-0.021429652348160744,0.015941433608531952,0.37516918778419495,-0.10922859609127045,6.27733039855957,0.5289524793624878,-0.1369956135749817,-2.793384075164795,44375.0,37946.0,42003.0,37593.0,-0.29999491024331576,-0.5196181808098181,0.5
0.126,TAKEOFF,abrupt,1.0,0.6119434833526611,0.01963946968317032,-0.0006485542398877442,0.017451973631978035,0.025609681382775307,-0.0016187832225114107,0.01365055050700903,0.15773224830627441,5.236042022705078,1.2993777990341187,0.9096822738647461,0.6612080335617065,44609.0,38163.0,42326.0,39612.0,0.6,0.0,0.5,-0.3556893765926361,0.6043753623962402,0.002375121461227536,0.006554360501468182,-0.0014723306521773338,0.0028427820652723312,0.15571552515029907,-1.3604453802108765,4.867417812347412,-0.6501085758209229,1.4413138628005981,1.8618991374969482,45842.0,37776.0,42188.0,40694.0,-0.3000025448675481,0.51961377298239,0.5,-0.3723173439502716,-0.5254285335540771,0.005424474366009235,0.019659101963043213,-0.021046435460448265,0.019457826390862465,0.3411245048046112,-0.09584324061870575,6.286970138549805,0.6540560126304626,-0.3155597448348999,1.0006394386291504,46068.0,38046.0,42695.0,38678.0,-0.29999491024331576,-0.5196181808098181,0.5
0.146,TAKEOFF,abrupt,1.0,0.6119434833526611,0.01963946968317032,-0.0006485542398877442,0.011918960139155388,0.028548454865813255,-0.005964396987110376,-0.025820525363087654,0.19196473062038422,5.264114856719971,-0.06959595531225204,-4.046061992645264,0.7361297607421875,42801.0,42079.0,45550.0,35595.0,0.6,0.0,0.5,-0.3556893765926361,0.6043753623962402,0.002375121461227536,0.011282098479568958,-0.0016008577076718211,0.004065935034304857,0.28362536430358887,-1.4920161962509155,4.834834575653076,3.2157986164093018,-0.46663472056388855,-5.951589584350586,45594.0,40329.0,42844.0,39824.0,-0.3000025448675481,0.51961377298239,0.5,-0.3723173439502716,-0.5254285335540771,0.005424474366009235,0.02007090114057064,-0.022141454741358757,0.020464757457375526,0.3306809067726135,-0.07864389568567276,6.239128112792969,0.26037272810935974,-1.2697100639343262,0.3887963891029358,45810.0,41007.0,45134.0,38751.0,-0.29999491024331576,-0.5196181808098181,0.5
0.166,TAKEOFF,abrupt,1.0,0.6119434833526611,0.01963946968317032,-0.0006485542398877442,0.009136470034718513,0.028858421370387077,-0.006671980023384094,-0.02383946068584919,0.21994760632514954,5.326597690582275,-5.231622219085693,6.158838272094727,-9.17554759979248,46836.0,42833.0,39766.0,38248.0,0.6,0.0,0.5,-0.3556893765926361,0.6043753623962402,0.002375121461227536,0.03223179280757904,-0.015553146600723267,-0.001354097737930715,0.3050273358821869,-1.4843090772628784,4.739871501922607,1.2691471576690674,-0.8134016394615173,-13.284849166870117,45813.0,40334.0,42037.0,42481.0,-0.3000025448675481,0.51961377298239,0.5,-0.37734562158584595,-0.5218425393104553,0.006057935766875744,-0.004433151334524155,-0.006442894693464041,0.004616468213498592,0.17491202056407928,0.10503720492124557,6.207748889923096,1.0006835460662842,1.0023105144500732,-0.5412933230400085,45810.0,41007.0,45134.0,38751.0,-0.29999491024331576,-0.5196181808098181,0.5
0.186,TAKEOFF,abrupt,1.0,0.6119434833526611,0.01963946968317032,-0.0006485542398877442,0.0075287362560629845,0.028003210201859474,-0.013968925923109055,-0.01515283714979887,0.20600861310958862,5.199987411499023,3.6701693534851074,-1.4049094915390015,-0.15942610800266266,42658.0,42549.0,46391.0,38519.0,0.6,0.0,0.5,-0.3556893765926361,0.6043753623962402,0.002375121461227536,0.03743666782975197,-0.016217045485973358,0.0023464050609618425,0.32300350069999695,-1.4807484149932861,4.4939727783203125,1.590011477470398,1.4173566102981567,0.6840091347694397,46290.0,39786.0,42460.0,43209.0,-0.3000025448675481,0.51961377298239,0.5,-0.37734562158584595,-0.5218425393104553,0.006057935766875744,-0.004714624490588903,-0.007083089090883732,0.004027683287858963,0.17830775678157806,0.11798414587974548,6.275143623352051,5.028691291809082,-3.2894530296325684,-7.252280235290527,48144.0,40609.0,45316.0,40005.0,-0.29999491024331576,-0.5196181808098181,0.5
0.206,TAKEOFF,abrupt,1.0,0.6119434833526611,0.01963946968317032,-0.0006485542398877442,-0.020481711253523827,0.0008691842085681856,-0.013445342890918255,0.1752847135066986,0.40038979053497314,5.146877765655518,-2.045870304107666,1.061170220375061,-9.03842830657959,44763.0,41778.0,43582.0,41050.0,0.6,0.0,0.5,-0.35299205780029297,0.6030598282814026,0.0018920961301773787,0.04259312525391579,-0.016851820051670074,0.0011473209597170353,0.18243223428726196,-1.2511557340621948,4.493959426879883,-2.1953258514404297,4.057204723358154,-8.506585121154785,46322.0,39736.0,43084.0,43945.0,-0.3000025448675481,0.51961377298239,0.5,-0.37734562158584595,-0.5218425393104553,0.006057935766875744,-0.005023960955440998,-0.007746296003460884,0.0016814060509204865,0.17719575762748718,0.10305856168270111,6.177196979522705,2.926568031311035,-5.634714126586914,5.986629486083984,48144.0,40609.0,45316.0,40005.0,-0.29999491024331576,-0.5196181808098181,0.5
0.226,TAKEOFF,abrupt,1.0,0.6062972545623779,0.01702447421848774,-7.972778985276818e-05,-0.02089809998869896,-0.0031962424982339144,-0.014718720689415932,0.20256265997886658,0.39623120427131653,4.983083248138428,-2.710728168487549,0.8461398482322693,-12.096839904785156,44710.0,44503.0,43595.0,39374.0,0.6,0.0,0.5,-0.35299205780029297,0.6030598282814026,0.0018920961301773787,0.018661528825759888,0.0001949012657860294,0.01008039340376854,0.09442075341939926,-1.3375515937805176,4.313082695007324,7.940830707550049,-4.821014404296875,-4.583434581756592,45886.0,42839.0,43328.0,41866.0,-0.3000025448675481,0.51961377298239,0.5,-0.37734562158584595,-0.5218425393104553,0.006057935766875744,-0.011242836713790894,-0.0032465714029967785,-0.006897330284118652,0.11059771478176117,0.14007802307605743,6.2207231521606445,8.931136131286621,-11.483109474182129,18.95317840576172,51598.0,46683.0,44795.0,30352.0,-0.29999491024331576,-0.5196181808098181,0.5
0.246,TAKEOFF,abrupt,1.0,0.6062972545623779,0.01702447421848774,-7.972778985276818e-05,-0.022116636857390404,-0.0030512295197695494,-0.008955737575888634,0.2098805159330368,0.40213125944137573,4.781526565551758,4.187628746032715,0.2965095043182373,-29.828845977783203,42708.0,45948.0,42969.0,41447.0,0.6,0.0,0.5,-0.35299205780029297,0.6030598282814026,0.0018920961301773787,0.02325606532394886,0.0001317573041887954,0.015279336832463741,0.07664509117603302,-1.1696799993515015,4.286269187927246,-4.055534839630127,1.7588233947753906,-11.676749229431152,46288.0,38969.0,44028.0,44971.0,-0.3000025448675481,0.51961377298239,0.5,-0.37734562158584595,-0.5218425393104553,0.006057935766875744,-0.012239457108080387,-0.003068128600716591,-0.01040091086179018,0.04104715585708618,0.09445832669734955,6.433893203735352,1.088380217552185,-10.9453706741333,-0.2473069280385971,48013.0,43818.0,46826.0,41641.0,-0.29999491024331576,-0.5196181808098181,0.5
0.266,TAKEOFF,abrupt,1.0,0.6062972545623779,0.01702447421848774,-7.972778985276818e-05,-0.022828830406069756,-0.003141481429338455,-0.0036754347383975983,0.22918863594532013,0.36480021476745605,4.270467758178711,-3.956552267074585,-11.641063690185547,-43.770118713378906,42857.0,44011.0,41223.0,46104.0,0.6,0.0,0.5,-0.35299205780029297,0.6030598282814026,0.0018920961301773787,0.01349576748907566,0.009858572855591774,0.025022102519869804,0.10879715532064438,-1.1510571241378784,4.089776039123535,-4.303965091705322,1.1307939291000366,-3.409358501434326,46219.0,40854.0,44221.0,44151.0,-0.3000025448675481,0.51961377298239,0.5,-0.3792131245136261,-0.5216094255447388,0.004009807016700506,-0.01255383063107729,-0.00332658807747066,-0.011902539990842342,0.10647710412740707,0.11264421045780182,6.394492149353027,1.9770056009292603,-0.05142796412110329,-10.184825897216797,48013.0,43818.0,46826.0,41641.0,-0.29999491024331576,-0.5196181808098181,0.5
0.286,TAKEOFF,abrupt,1.0,0.6062972545623779,0.01702447421848774,-7.972778985276818e-05,-0.022976433858275414,-0.003465224988758564,0.0032797823660075665,0.17305460572242737,0.39522087574005127,2.9567549228668213,4.993862152099609,12.532044410705566,-45.66486740112305,40473.0,45917.0,45500.0,43383.0,0.6,0.0,0.5,-0.35299205780029297,0.6030598282814026,0.0018920961301773787,0.01962665282189846,0.011134898290038109,0.016116110607981682,0.09407548606395721,-1.1606180667877197,3.949286460876465,-5.051811218261719,-0.4792134165763855,-4.004233360290527,48978.0,43365.0,42027.0,42144.0,-0.3000025448675481,0.51961377298239,0.5,-0.3792131245136261,-0.5216094255447388,0.004009807016700506,0.004093254450708628,-0.015411749482154846,-0.004503198899328709,0.2657763659954071,0.027453359216451645,6.276424884796143,-2.438666582107544,2.129821538925171,-2.062922239303589,49196.0,40726.0,48219.0,42801.0,-0.29999491024331576,-0.5196181808098181,0.5
0.307,TAKEOFF,abrupt,1.0,0.6062972545623779,0.01702447421848774,-7.972778985276818e-05,-0.00839205365628004,-0.012395811267197132,-0.0033614805433899164,0.3400890529155731,0.17811311781406403,2.111914873123169,-1.6900205612182617,-2.4288089275360107,-32.144893646240234,41518.0,46565.0,44758.0,44064.0,0.6,0.0,0.5,-0.35629749298095703,0.6073164343833923,0.003182904329150915,0.023868532851338387,0.00915443617850542,0.01208026334643364,0.022431328892707825,-1.0937749147415161,3.8660712242126465,3.9185116291046143,-3.106998920440674,-8.557002067565918,46570.0,43499.0,44849.0,43354.0,-0.3000025448675481,0.51961377298239,0.5,-0.3792131245136261,-0.5216094255447388,0.004009807016700506,0.004109518602490425,-0.016293318942189217,-0.007765553425997496,0.22045421600341797,-0.0022999451030045748,6.233580112457275,3.1226184368133545,-3.139195680618286,-7.286147117614746,48594.0,46902.0,47429.0,40092.0,-0.29999491024331576,-0.5196181808098181,0.5
0.329,TAKEOFF,abrupt,1.0,0.6116782426834106,0.014411002397537231,-0.0006372922798618674,-0.011131114326417446,-0.01561487466096878,-0.006469069514423609,0.35082682967185974,0.22117602825164795,1.7253224849700928,-3.2962379455566406,-6.838299751281738,-36.771244049072266,42288.0,46551.0,42603.0,46109.0,0.6,0.0,0.5,-0.35629749298095703,0.6073164343833923,0.003182904329150915,0.021050378680229187,0.017730582505464554,0.00909710954874754,0.09053497761487961,-1.0567950010299683,3.655766725540161,-4.52423620223999,4.860584735870361,-12.0588960647583,45872.0,42093.0,46135.0,45426.0,-0.3000025448675481,0.51961377298239,0.5,-0.3792131245136261,-0.5216094255447388,0.004009807016700506,0.013912255875766277,-0.023965632542967796,-0.0049253590404987335,0.2719949185848236,-0.08746737986803055,6.182701110839844,4.449432373046875,-3.4657747745513916,-11.253153800964355,48949.0,43944.0,48855.0,42749.0,-0.29999491024331576,-0.5196181808098181,0.5
0.346,TAKEOFF,abrupt,1.0,0.6116782426834106,0.014411002397537231,-0.0006372922798618674,-0.007117446977645159,-0.018089409917593002,-0.0034476749133318663,0.29086989164352417,0.2740008533000946,0.9473910331726074,9.033112525939941,11.764784812927246,-46.85734939575195,39520.0,47572.0,44609.0,46938.0,0.6,0.0,0.5,-0.35629749298095703,0.6073164343833923,0.003182904329150915,0.024554885923862457,0.016613194718956947,0.006616662722080946,0.09053497761487961,-1.0567950010299683,3.655766725540161,-4.52423620223999,4.860584735870361,-12.0588960647583,48221.0,45087.0,42912.0,44480.0,-0.3000025448675481,0.51961377298239,0.5,-0.3792131245136261,-0.5216094255447388,0.004009807016700506,-0.004866036586463451,0.003743354696780443,-0.001274094800464809,-0.002903748070821166,0.023013820871710777,5.985479354858398,2.141758918762207,-3.1732773780822754,2.4115774631500244,48949.0,43944.0,48855.0,42749.0,-0.29999491024331576,-0.5196181808098181,0.5
0.366,TAKEOFF,abrupt,1.0,0.6116782426834106,0.014411002397537231,-0.0006372922798618674,-0.010916909202933311,-0.0140829561278224,-0.0006667841807939112,0.38010111451148987,0.1688406616449356,0.019707072526216507,-3.3320305347442627,-8.455748558044434,-40.57621383666992,43834.0,49096.0,41273.0,45584.0,0.6,0.0,0.5,-0.35629749298095703,0.6073164343833923,0.003182904329150915,0.027552131563425064,0.01497056894004345,0.0052805617451667786,0.19106262922286987,-1.0971609354019165,3.048645257949829,5.857882022857666,0.2465161383152008,-16.986711502075195,48520.0,44672.0,42500.0,46139.0,-0.3000025448675481,0.51961377298239,0.5,-0.3769283592700958,-0.5223940014839172,0.004493776708841324,-0.004973814822733402,0.003690705168992281,-0.0038039402570575476,0.0169636569917202,0.048866111785173416,6.068861484527588,-8.927020072937012,5.696395397186279,6.584441661834717,49244.0,40525.0,49957.0,45523.0,-0.29999491024331576,-0.5196181808098181,0.5
0.386,TAKEOFF,abrupt,1.0,0.6116782426834106,0.014411002397537231,-0.0006372922798618674,-0.013524631038308144,-0.010547284968197346,-0.0021184051875025034,0.27061471343040466,0.2905351221561432,-0.7274671196937561,7.534552574157715,9.758111953735352,-34.35610580444336,37346.0,47512.0,47348.0,47506.0,0.6,0.0,0.5,-0.35629749298095703,0.6073164343833923,0.003182904329150915,0.03798961266875267,0.004073354881256819,0.010076354257762432,0.1813482642173767,-0.9937437772750854,2.7194302082061768,7.187187194824219,0.5895097851753235,-20.24711036682129,47739.0,43198.0,43592.0,48006.0,-0.3000025448675481,0.51961377298239,0.5,-0.3769283592700958,-0.5223940014839172,0.004493776708841324,0.012418915517628193,-0.00942895095795393,0.005849165376275778,0.08944155275821686,-0.12421784549951553,6.217338562011719,-0.8173198699951172,0.925351619720459,0.7244488000869751,50430.0,43245.0,49401.0,44118.0,-0.29999491024331576,-0.5196181808098181,0.5
0.408,TAKEOFF,abrupt,1.0,0.6116782426834106,0.014411002397537231,-0.0006372922798618674,-0.012547492049634457,-0.011829651892185211,-0.0037700345274060965,0.3011835515499115,0.2212141752243042,-1.3895816802978516,-4.323176383972168,-5.333255767822266,-29.740795135498047,37346.0,47512.0,47348.0,47506.0,0.6,0.0,0.5,-0.35508444905281067,0.6083322763442993,0.00304972636513412,0.03485051169991493,0.007414332590997219,0.015497926622629166,0.1813482642173767,-0.9937437772750854,2.7194302082061768,7.187187194824219,0.5895097851753235,-20.24711036682129,47739.0,43198.0,43592.0,48006.0,-0.3000025448675481,0.51961377298239,0.5,-0.3769283592700958,-0.5223940014839172,0.004493776708841324,-0.0025446482468396425,0.004880730994045734,0.0002458360104355961,0.12167259305715561,-0.1045423299074173,6.278046607971191,-3.8702926635742188,0.6142218708992004,4.107806205749512,50430.0,43245.0,49401.0,44118.0,-0.29999491024331576,-0.5196181808098181,0.5
0.427,TAKEOFF,abrupt,1.0,0.6075124740600586,0.018065592274069786,-0.0008086935267783701,-0.014613555744290352,-0.007412304170429707,-0.004765775054693222,0.27386969327926636,0.23825938999652863,-2.027470827102661,-0.7108094692230225,-5.435212135314941,-23.155317306518555,42420.0,48151.0,45295.0,47704.0,0.6,0.0,0.5,-0.35508444905281067,0.6083322763442993,0.00304972636513412,0.04713799059391022,-0.00405081594362855,0.014505160972476006,0.42692995071411133,-1.0197210311889648,1.823371410369873,5.581722736358643,-6.316750526428223,-23.64719009399414,47155.0,45819.0,44118.0,47772.0,-0.3000025448675481,0.51961377298239,0.5,-0.3769283592700958,-0.5223940014839172,0.004493776708841324,0.006740280892699957,-0.00048014838830567896,0.00038771171239204705,0.004468350671231747,-0.09051194041967392,6.382848739624023,0.5451352000236511,-1.083853006362915,-2.7214651107788086,51031.0,45291.0,49942.0,42123.0,-0.29999491024331576,-0.5196181808098181,0.5
0.448,TAKEOFF,abrupt,1.0,0.6075124740600586,0.018065592274069786,-0.0008086935267783701,-0.0142616992816329,-0.008406009525060654,-0.01398575957864523,0.26901745796203613,0.2599518895149231,-2.5355138778686523,6.06559419631958,6.599003314971924,-11.988765716552734,42823.0,49434.0,46826.0,45960.0,0.6,0.0,0.5,-0.35508444905281067,0.6083322763442993,0.00304972636513412,0.043328072875738144,-0.0003508375957608223,0.013997946865856647,0.5487611889839172,-0.9716916680335999,1.3496218919754028,-1.0209290981292725,-9.65882396697998,-21.920000076293945,46521.0,45677.0,44982.0,48909.0,-0.3000025448675481,0.51961377298239,0.5,-0.3769283592700958,-0.5223940014839172,0.004493776708841324,0.007072120904922485,-0.0004482069343794137,0.004521849565207958,-0.04470456764101982,-0.10310065001249313,6.334570407867432,4.654501914978027,7.237324237823486,-2.9507768154144287,52332.0,45208.0,47426.0,44530.0,-0.29999491024331576,-0.5196181808098181,0.5
0.466,TAKEOFF,abrupt,1.0,0.6075124740600586,0.018065592274069786,-0.0008086935267783701,-0.014208727516233921,-0.00806735921651125,-0.00687156617641449,0.31708866357803345,0.23165860772132874,-2.8054182529449463,-4.088132381439209,-5.650897026062012,-7.673573970794678,47606.0,48240.0,42387.0,47851.0,0.6,0.0,0.5,-0.35508444905281067,0.6083322763442993,0.00304972636513412,0.04683195799589157,-0.0021351100876927376,0.015257077291607857,0.3710049092769623,-0.6111035943031311,0.7476335167884827,-7.452918529510498,-9.809835433959961,-16.231895446777344,45903.0,45972.0,46411.0,48897.0,-0.3000025448675481,0.51961377298239,0.5,-0.3726033568382263,-0.523991048336029,0.005484032444655895,1.84797008841997e-05,0.009473390877246857,0.002732208464294672,0.1122829020023346,-0.17306256294250488,6.304928302764893,8.636650085449219,-8.43071460723877,0.5923906564712524,52829.0,45830.0,48773.0,43284.0,-0.29999491024331576,-0.5196181808098181,0.5
0.486,TAKEOFF,abrupt,1.0,0.6075124740600586,0.018065592274069786,-0.0008086935267783701,-0.0010653670178726315,-0.016168711706995964,-0.014789741486310959,0.3603844940662384,0.16913507878780365,-2.9987754821777344,-0.6011579036712646,-4.664704322814941,-2.4335744380950928,45925.0,49416.0,45146.0,46786.0,0.6,0.0,0.5,-0.35508444905281067,0.6083322763442993,0.00304972636513412,0.040169499814510345,0.0021044251043349504,0.02218898944556713,0.23455794155597687,-0.26205703616142273,0.5206902027130127,-2.545377016067505,-21.8145751953125,-9.254727363586426,46350.0,47452.0,47300.0,46959.0,-0.3000025448675481,0.51961377298239,0.5,-0.3726033568382263,-0.523991048336029,0.005484032444655895,-0.000299811945296824,0.011207000352442265,0.0011122587602585554,0.060194648802280426,0.031068837270140648,6.291475296020508,-9.252970695495605,5.651926040649414,-4.357908725738525,50764.0,43392.0,50902.0,47146.0,-0.29999491024331576,-0.5196181808098181,0.5
0.506,TAKEOFF,abrupt,1.0,0.6075124740600586,0.018065592274069786,-0.0008086935267783701,-0.008589380420744419,-0.01501198299229145,0.0007055971655063331,0.3129509389400482,0.25645121932029724,-3.074561357498169,5.828256130218506,-1.3342628479003906,-5.8265910148620605,46249.0,49424.0,44912.0,47452.0,0.6,0.0,0.5,-0.35440006852149963,0.6093642711639404,0.004769699648022652,0.04206337034702301,0.0009517049766145647,0.026788514107465744,0.3952636122703552,-0.05792190134525299,0.28234249353408813,11.804667472839355,-25.006921768188477,-5.096353530883789,46798.0,49717.0,47294.0,44807.0,-0.3000025448675481,0.51961377298239,0.5,-0.3726033568382263,-0.523991048336029,0.005484032444655895,-0.00041585793951526284,0.011387095786631107,-0.0018431177595630288,-0.15909165143966675,-0.050837136805057526,6.188948154449463,6.723609447479248,14.730131149291992,-4.375509738922119,50549.0,47705.0,51158.0,45949.0,-0.29999491024331576,-0.5196181808098181,0.5
0.526,TAKEOFF,abrupt,1.0,0.6088950037956238,0.01607038639485836,-0.00017837526684161276,-0.009568904526531696,-0.01613074727356434,0.0016351197846233845,0.4171113967895508,0.259833425283432,-3.1915502548217773,5.460535049438477,4.542902946472168,-7.368965148925781,43793.0,49453.0,47946.0,48043.0,0.6,0.0,0.5,-0.35440006852149963,0.6093642711639404,0.004769699648022652,0.06565232574939728,-0.015177890658378601,0.0219714418053627,0.3952636122703552,-0.05792190134525299,0.28234249353408813,11.804667472839355,-25.006921768188477,-5.096353530883789,48083.0,49853.0,46681.0,45557.0,-0.3000025448675481,0.51961377298239,0.5,-0.3726033568382263,-0.523991048336029,0.005484032444655895,-0.0040113916620612144,0.014825483784079552,-0.0014305642107501626,-0.15618985891342163,-0.1368328481912613,6.07248592376709,-2.3867831230163574,-14.85632610321045,-7.91623067855835,50549.0,47705.0,51158.0,45949.0,-0.29999491024331576,-0.5196181808098181,0.5
0.546,TAKEOFF,abrupt,1.0,0.6088950037956238,0.01607038639485836,-0.00017837526684161276,-0.010465170256793499,-0.017567692324519157,-0.004355757497251034,0.44416311383247375,0.1784096658229828,-3.308830499649048,-4.8978657722473145,-10.710018157958984,-2.0242650508880615,47985.0,48289.0,44298.0,49447.0,0.6,0.0,0.5,-0.35440006852149963,0.6093642711639404,0.004769699648022652,0.06540501117706299,-0.01679721660912037,0.029869835823774338,0.8338828682899475,0.6884883046150208,0.056849073618650436,40.723934173583984,-15.59349536895752,-8.397960662841797,50476.0,51327.0,43699.0,44591.0,-0.3000025448675481,0.51961377298239,0.5,-0.3726033568382263,-0.523991048336029,0.005484032444655895,-0.006011464633047581,0.01177368126809597,0.001421964610926807,-0.15687471628189087,0.18596681952476501,5.843240261077881,2.4819509983062744,-12.327193260192871,-9.234452247619629,52164.0,48070.0,49905.0,47624.0,-0.29999491024331576,-0.5196181808098181,0.5
0.566,TAKEOFF,abrupt,1.0,0.6088950037956238,0.01607038639485836,-0.00017837526684161276,-0.017696676775813103,-0.007588875479996204,0.005817160941660404,0.2659286558628082,0.27288147807121277,-3.3575363159179688,1.1650439500808716,-6.092199802398682,-1.1099469661712646,45747.0,50551.0,47363.0,47444.0,0.6,0.0,0.5,-0.35440006852149963,0.6093642711639404,0.004769699648022652,0.06325593590736389,-0.019591037184000015,0.04660426452755928,1.426363468170166,1.3416177034378052,-0.03844962641596794,30.493898391723633,-34.1095085144043,0.5345659852027893,48882.0,50970.0,46898.0,43583.0,-0.3000025448675481,0.51961377298239,0.5,-0.37747058272361755,-0.5197678208351135,0.004573026206344366,-0.006937089841812849,0.012215901166200638,0.0054851858876645565,-0.17355544865131378,0.3848123848438263,5.637914180755615,4.675039768218994,2.390895366668701,-12.702969551086426,47913.0,49936.0,50074.0,51237.0,-0.29999491024331576,-0.5196181808098181,0.5
0.586,TAKEOFF,abrupt,1.0,0.6088950037956238,0.01607038639485836,-0.00017837526684161276,-0.018738748505711555,-0.008500867523252964,0.011685340665280819,0.24478846788406372,0.3537006676197052,-3.391024351119995,-5.333608150482178,-2.4461798667907715,-4.985188007354736,46832.0,50264.0,45986.0,48687.0,0.6,0.0,0.5,-0.35440006852149963,0.6093642711639404,0.004769699648022652,0.018546778708696365,-0.005500832572579384,0.06374122202396393,2.086726665496826,2.0158822536468506,-0.02984163910150528,26.98741912841797,-57.0381965637207,5.400675296783447,47128.0,53734.0,49406.0,38767.0,-0.3000025448675481,0.51961377298239,0.5,-0.37747058272361755,-0.5197678208351135,0.004573026206344366,-0.007835350930690765,0.00969828199595213,-0.002332943957298994,-0.07901260256767273,0.4207913279533386,5.300980091094971,-8.625090599060059,-4.241313934326172,-13.5750150680542,47913.0,49936.0,50074.0,51237.0,-0.29999491024331576,-0.5196181808098181,0.5
0.606,TAKEOFF,abrupt,1.0,0.6088950037956238,0.01607038639485836,-0.00017837526684161276,-0.02364780567586422,-0.0016159387305378914,0.01511591300368309,0.10893155634403229,0.4247594475746155,-3.5231642723083496,10.796619415283203,4.747076511383057,-6.509819507598877,47010.0,51978.0,46510.0,47513.0,0.6,0.0,0.5,-0.3519769310951233,0.6084442138671875,0.008394593372941017,0.012075696140527725,-0.012402850203216076,0.07077395915985107,2.546715497970581,3.311657428741455,0.1103963851928711,16.58240509033203,-55.157371520996094,7.547120571136475,46698.0,53212.0,50480.0,39277.0,-0.3000025448675481,0.51961377298239,0.5,-0.37747058272361755,-0.5197678208351135,0.004573026206344366,-0.0077910395339131355,0.008243517018854618,-0.003562337951734662,-0.2918106019496918,0.46782928705215454,4.989884376525879,-7.526109218597412,0.6516931653022766,-10.298954963684082,51543.0,49781.0,49361.0,51092.0,-0.29999491024331576,-0.5196181808098181,0.5
0.626,TAKEOFF,abrupt,1.0,0.6056764721870422,0.01743708923459053,0.0033750785514712334,-0.024999959394335747,-0.0020122872665524483,0.011003777384757996,0.33864912390708923,0.34389159083366394,-3.654242753982544,-9.86270809173584,-2.477505922317505,-3.7157511711120605,45650.0,51632.0,48709.0,48230.0,0.6,0.0,0.5,-0.3519769310951233,0.6084442138671875,0.008394593372941017,-0.015530150383710861,-0.011665637604892254,0.08364778757095337,2.8327555656433105,4.436848163604736,0.22877287864685059,-15.836077690124512,-36.72515106201172,8.004644393920898,45588.0,51166.0,51869.0,42830.0,-0.3000025448675481,0.51961377298239,0.5,-0.37747058272361755,-0.5197678208351135,0.004573026206344366,-0.005619633477181196,0.010129760019481182,0.012495714239776134,-0.45863911509513855,0.32557782530784607,4.745406150817871,-1.9720393419265747,11.245884895324707,-15.18176555633545,50800.0,52945.0,48942.0,49608.0,-0.29999491024331576,-0.5196181808098181,0.5
0.646,TAKEOFF,abrupt,1.0,0.6056764721870422,0.01743708923459053,0.0033750785514712334,-0.026215963065624237,-0.0030328677967190742,0.012566685676574707,0.22830301523208618,0.3964656591415405,-3.729839324951172,-6.274787425994873,-10.549273490905762,2.016177177429199,46682.0,52185.0,49025.0,47046.0,0.6,0.0,0.5,-0.3519769310951233,0.6084442138671875,0.008394593372941017,-0.030337883159518242,-0.021675845608115196,0.08983856439590454,2.4587607383728027,5.19546365737915,0.41585108637809753,-23.005014419555664,-14.3594970703125,9.199029922485352,46412.0,50050.0,51475.0,44736.0,-0.3000025448675481,0.51961377298239,0.5,-0.37747058272361755,-0.5197678208351135,0.004573026206344366,-0.003731906646862626,0.012233996763825417,0.025269832462072372,-0.44749870896339417,0.16401124000549316,4.4087815284729,13.929885864257812,-4.221094131469727,-16.03348731994629,50800.0,52945.0,48942.0,49608.0,-0.29999491024331576,-0.5196181808098181,0.5
0.666,TAKEOFF,abrupt,1.0,0.6056764721870422,0.01743708923459053,0.0033750785514712334,-0.028222696855664253,0.004181178752332926,0.022055700421333313,0.04533512145280838,0.623515248298645,-3.6995849609375,1.191894292831421,-21.744037628173828,3.958888530731201,47449.0,52650.0,49304.0,46450.0,0.6,0.0,0.5,-0.3519769310951233,0.6084442138671875,0.008394593372941017,-0.047329481691122055,-0.017560120671987534,0.08609078824520111,1.9445618391036987,5.5171613693237305,0.6017617583274841,-22.394268035888672,8.674100875854492,12.235082626342773,47697.0,49481.0,51428.0,45795.0,-0.3000025448675481,0.51961377298239,0.5,-0.37192413210868835,-0.5221157073974609,0.006367192603647709,0.019512323662638664,-0.003724079579114914,0.03460361063480377,-0.13495296239852905,0.16018255054950714,4.149880409240723,-2.5211119651794434,-19.99022102355957,-12.230169296264648,51148.0,51375.0,51319.0,50332.0,-0.29999491024331576,-0.5196181808098181,0.5
0.686,TAKEOFF,abrupt,1.0,0.6056764721870422,0.01743708923459053,0.0033750785514712334,-0.03086068667471409,0.004216204863041639,0.030627364292740822,0.0917389765381813,1.0662347078323364,-3.5688509941101074,1.4793860912322998,-14.884259223937988,14.623311042785645,45580.0,51667.0,51460.0,47420.0,0.6,0.0,0.5,-0.3519769310951233,0.6084442138671875,0.008394593372941017,-0.068027563393116,-0.020961131900548935,0.0932328924536705,1.5072331428527832,5.3763017654418945,0.8024023771286011,-11.31958293914795,32.07740783691406,11.006280899047852,50026.0,49287.0,49772.0,46238.0,-0.3000025448675481,0.51961377298239,0.5,-0.37192413210868835,-0.5221157073974609,0.006367192603647709,0.0232081338763237,-8.812641317490488e-05,0.04643232375383377,-0.12997391819953918,0.5201645493507385,3.9491281509399414,6.0794854164123535,-13.518926620483398,-9.869938850402832,52586.0,50312.0,50660.0,51254.0,-0.29999491024331576,-0.5196181808098181,0.5
0.706,TAKEOFF,abrupt,1.0,0.5991209149360657,0.026321759447455406,-0.0004920376813970506,-0.03668360412120819,0.007931731641292572,0.04412690922617912,-0.10726994276046753,1.5122374296188354,-3.261427164077759,8.476552963256836,-18.37915802001953,11.373766899108887,45577.0,54805.0,52716.0,44687.0,0.6,0.0,0.5,-0.35757914185523987,0.611535906791687,0.014221671037375927,-0.08770947903394699,-0.025045374408364296,0.10221466422080994,1.3007526397705078,4.737000942230225,1.0566083192825317,10.525912284851074,51.40731430053711,11.314820289611816,52972.0,48919.0,46962.0,46709.0,-0.3000025448675481,0.51961377298239,0.5,-0.37192413210868835,-0.5221157073974609,0.006367192603647709,0.013138274662196636,0.009716827422380447,0.05388860031962395,-0.12817184627056122,0.7218203544616699,3.754368543624878,4.219482421875,7.114221572875977,-6.433359622955322,50649.0,48804.0,53838.0,52278.0,-0.29999491024331576,-0.5196181808098181,0.5
0.726,TAKEOFF,abrupt,1.0,0.5991209149360657,0.026321759447455406,-0.0004920376813970506,-0.05550080165266991,0.040562327951192856,0.02299327589571476,0.013958039693534374,1.9778474569320679,-3.0579657554626465,14.852272033691406,-30.599172592163086,11.660317420959473,48147.0,53488.0,52256.0,45382.0,0.6,0.0,0.5,-0.35757914185523987,0.611535906791687,0.014221671037375927,-0.10553155839443207,-0.030111214146018028,0.12025126069784164,1.4747891426086426,3.7182672023773193,1.2741533517837524,16.427701950073242,47.591434478759766,11.974231719970703,51856.0,50251.0,48607.0,45120.0,-0.3000025448675481,0.51961377298239,0.5,-0.37192413210868835,-0.5221157073974609,0.006367192603647709,0.030368274077773094,-0.00492410734295845,0.06327671557664871,-0.04331008344888687,0.4868871867656708,3.669731855392456,-18.095792770385742,-0.6676720380783081,-4.219969272613525,51511.0,50529.0,52753.0,51683.0,-0.29999491024331576,-0.5196181808098181,0.5
0.746,TAKEOFF,abrupt,1.0,0.5991209149360657,0.026321759447455406,-0.0004920376813970506,-0.05741577222943306,0.02974609285593033,0.02951985038816929,0.4275563657283783,2.4889426231384277,-2.8661553859710693,20.430938720703125,-9.635616302490234,16.09209632873535,50028.0,54891.0,49952.0,45302.0,0.6,0.0,0.5,-0.35757914185523987,0.611535906791687,0.014221671037375927,-0.11840461194515228,-0.03487519174814224,0.1286344975233078,1.9003320932388306,2.662675142288208,1.4992748498916626,16.034095764160156,47.90263366699219,14.993074417114258,52716.0,49333.0,47490.0,46841.0,-0.3000025448675481,0.51961377298239,0.5,-0.37192413210868835,-0.5221157073974609,0.006367192603647709,0.028557632118463516,-0.004520256072282791,0.0723610520362854,-0.4596918225288391,0.5795510411262512,3.5638420581817627,-18.50817108154297,-4.706870079040527,-7.947506427764893,52236.0,50312.0,52198.0,52632.0,-0.29999491024331576,-0.5196181808098181,0.5
0.766,TAKEOFF,abrupt,1.0,0.5991209149360657,0.026321759447455406,-0.0004920376813970506,-0.06506028771400452,0.02708134613931179,0.032901789993047714,0.9386477470397949,2.6323249340057373,-2.5075881481170654,24.40680503845215,-1.8049548864364624,6.016783237457275,50531.0,54971.0,50989.0,44706.0,0.6,0.0,0.5,-0.35757914185523987,0.611535906791687,0.014221671037375927,-0.11905161291360855,-0.05687053129076958,0.143678680062294,2.252286672592163,1.6981234550476074,1.7950260639190674,2.793931484222412,43.062347412109375,13.948452949523926,52584.0,49815.0,48521.0,45817.0,-0.3000025448675481,0.51961377298239,0.5,-0.36932820081710815,-0.5193799734115601,0.012297292239964008,0.009591922163963318,0.016909968107938766,0.08049694448709488,-0.8430556058883667,0.6612372994422913,3.385172128677368,-4.792298316955566,7.594274997711182,-5.562549591064453,51868.0,49162.0,53228.0,53552.0,-0.29999491024331576,-0.5196181808098181,0.5
0.786,TAKEOFF,abrupt,1.0,0.5991209149360657,0.026321759447455406,-0.0004920376813970506,-0.07799028605222702,0.030856169760227203,0.03482796251773834,1.6110235452651978,2.654658079147339,-2.3084521293640137,42.836483001708984,7.565725326538086,9.581011772155762,53064.0,53974.0,49787.0,45744.0,0.6,0.0,0.5,-0.35757914185523987,0.611535906791687,0.014221671037375927,-0.12241622805595398,-0.06878624111413956,0.15483476221561432,2.276714563369751,0.8723494410514832,2.069096803665161,-18.742002487182617,43.56098937988281,15.664078712463379,51995.0,48443.0,49517.0,47317.0,-0.3000025448675481,0.51961377298239,0.5,-0.36932820081710815,-0.5193799734115601,0.012297292239964008,0.005745608825236559,0.01480389665812254,0.08894435316324234,-0.965307891368866,0.56578528881073,3.2311694622039795,-14.358057022094727,7.286078929901123,-6.486774921417236,50804.0,52494.0,54338.0,51121.0,-0.29999491024331576,-0.5196181808098181,0.5
0.806,TAKEOFF,abrupt,1.0,0.5918159484863281,0.029210614040493965,0.004931948147714138,-0.08905506134033203,0.027118567377328873,0.04225847125053406,2.464042901992798,2.3711867332458496,-2.099564790725708,34.024574279785156,23.430404663085938,11.142769813537598,52400.0,54605.0,51337.0,44663.0,0.6,0.0,0.5,-0.3606237769126892,0.6010173559188843,0.027975281700491905,-0.12803533673286438,-0.07512425631284714,0.16579854488372803,1.9224894046783447,-0.02702912501990795,2.3838884830474854,-34.25413513183594,37.564666748046875,15.280939102172852,51670.0,47149.0,50516.0,48445.0,-0.3000025448675481,0.51961377298239,0.5,-0.36932820081710815,-0.5193799734115601,0.012297292239964008,0.0052578444592654705,0.01776808127760887,0.0927017405629158,-1.2257529497146606,0.4850737750530243,3.053673505783081,-4.5368828773498535,-10.407118797302246,-5.7218337059021,53116.0,52437.0,53290.0,50995.0,-0.29999491024331576,-0.5196181808098181,0.5
0.826,TAKEOFF,abrupt,1.0,0.5918159484863281,0.029210614040493965,0.004931948147714138,-0.09720349311828613,0.019648974761366844,0.052268531173467636,3.055560350418091,2.0609896183013916,-1.8162513971328735,12.655864715576172,-1.9391515254974365,6.942593097686768,48990.0,55880.0,54253.0,44902.0,0.6,0.0,0.5,-0.3606237769126892,0.6010173559188843,0.027975281700491905,-0.12559017539024353,-0.08335866034030914,0.17926780879497528,1.2714345455169678,-0.7533106207847595,2.670579195022583,-34.8133430480957,22.063934326171875,15.97439193725586,52094.0,46279.0,52835.0,46229.0,-0.3000025448675481,0.51961377298239,0.5,-0.36932820081710815,-0.5193799734115601,0.012297292239964008,0.003093807026743889,0.02210724912583828,0.10092949867248535,-1.1838974952697754,0.734072744846344,2.9602859020233154,16.42884635925293,-11.601593971252441,-3.154803991317749,53707.0,54014.0,53442.0,48717.0,-0.29999491024331576,-0.5196181808098181,0.5
0.846,TAKEOFF,abrupt,1.0,0.5918159484863281,0.029210614040493965,0.004931948147714138,-0.10411979258060455,0.007139813620597124,0.041244521737098694,3.1502275466918945,2.1021032333374023,-1.7350958585739136,-8.43278980255127,-6.651926517486572,4.647459983825684,47776.0,54411.0,54305.0,49454.0,0.6,0.0,0.5,-0.3606237769126892,0.6010173559188843,0.027975281700491905,-0.12390223145484924,-0.08784624189138412,0.1981738805770874,0.3429432213306427,-1.3382710218429565,3.1571621894836426,-19.908353805541992,11.432093620300293,16.126028060913086,51447.0,48948.0,51591.0,45761.0,-0.3000025448675481,0.51961377298239,0.5,-0.36932820081710815,-0.5193799734115601,0.012297292239964008,0.013781953603029251,0.024562912061810493,0.12160157412290573,-0.759233832359314,0.91935795545578,2.9153552055358887,30.36519432067871,-16.809804916381836,-1.3229800462722778,55147.0,52064.0,52831.0,50192.0,-0.29999491024331576,-0.5196181808098181,0.5
0.867,TAKEOFF,abrupt,1.0,0.5918159484863281,0.029210614040493965,0.004931948147714138,-0.11032670736312866,-0.005963732022792101,0.03413321450352669,2.8149709701538086,2.2106213569641113,-1.6934181451797485,-33.70027160644531,-9.257953643798828,4.870879173278809,47794.0,54171.0,55187.0,50289.0,0.6,0.0,0.5,-0.3606237769126892,0.6010173559188843,0.027975281700491905,-0.1198110431432724,-0.09029103815555573,0.2056007832288742,0.05473165959119797,-1.548636794090271,3.475710391998291,-7.271963119506836,11.786689758300781,15.069829940795898,52845.0,49453.0,50481.0,45254.0,-0.3000025448675481,0.51961377298239,0.5,-0.3611365258693695,-0.5224828124046326,0.024605991318821907,0.015269783325493336,0.02429588884115219,0.14919599890708923,-0.09959647059440613,1.1365156173706055,2.929678440093994,29.731727600097656,-3.976208209991455,0.7871196269989014,55147.0,52064.0,52831.0,50192.0,-0.29999491024331576,-0.5196181808098181,0.5
0.886,TAKEOFF,abrupt,1.0,0.5918159484863281,0.029210614040493965,0.004931948147714138,-0.10801339894533157,-0.029966259375214577,0.04586269333958626,2.2387535572052,2.1767468452453613,-1.6288878917694092,-31.33545684814453,3.4625284671783447,6.928351879119873,50828.0,56304.0,53043.0,47736.0,0.6,0.0,0.5,-0.3606237769126892,0.6010173559188843,0.027975281700491905,-0.11468079686164856,-0.090874582529068,0.21791870892047882,0.010516510345041752,-1.8271591663360596,3.7889366149902344,1.8921242952346802,7.712172508239746,17.514814376831055,53305.0,50412.0,50472.0,43669.0,-0.3000025448675481,0.51961377298239,0.5,-0.3611365258693695,-0.5224828124046326,0.024605991318821907,-0.003844158025458455,0.03992145135998726,0.16670329868793488,0.4651385247707367,1.1956790685653687,2.971330404281616,18.978647232055664,-1.9120609760284424,4.258448600769043,54804.0,51391.0,53775.0,49840.0,-0.29999491024331576,-0.5196181808098181,0.5
0.91,TAKEOFF,abrupt,1.0,0.5853192806243896,0.02159392647445202,0.010268962010741234,-0.11120427399873734,-0.03963416814804077,0.04987798258662224,1.553423285484314,2.0640854835510254,-1.5501936674118042,-28.13953971862793,0.047102250158786774,6.454486846923828,51043.0,54912.0,53629.0,49953.0,0.6,0.0,0.5,-0.3696168065071106,0.5918269157409668,0.046503711491823196,-0.09610472619533539,-0.09123934805393219,0.21457815170288086,0.10949715971946716,-1.9904875755310059,4.130169868469238,4.472158432006836,4.050838470458984,17.825807571411133,53209.0,49938.0,51497.0,44501.0,-0.3000025448675481,0.51961377298239,0.5,-0.3611365258693695,-0.5224828124046326,0.024605991318821907,-0.009706959128379822,0.039382606744766235,0.18136565387248993,0.6713215112686157,1.3579217195510864,3.025116205215454,10.273343086242676,-6.520437717437744,5.334311485290527,54311.0,51656.0,55098.0,49018.0,-0.29999491024331576,-0.5196181808098181,0.5
0.928,TAKEOFF,abrupt,1.0,0.5853192806243896,0.02159392647445202,0.010268962010741234,-0.12861564755439758,-0.04966198280453682,0.05819961056113243,1.132537841796875,1.990403413772583,-1.413156509399414,-5.171205043792725,16.140361785888672,8.894083023071289,51017.0,55436.0,53976.0,49566.0,0.6,0.0,0.5,-0.3696168065071106,0.5918269157409668,0.046503711491823196,-0.08475422859191895,-0.08939817547798157,0.2146250605583191,0.15197138488292694,-2.0639889240264893,4.279148101806641,-3.9518139362335205,4.012513637542725,17.921030044555664,53171.0,49019.0,52149.0,45883.0,-0.3000025448675481,0.51961377298239,0.5,-0.3611365258693695,-0.5224828124046326,0.024605991318821907,-0.014750448055565357,0.03648637980222702,0.19747328758239746,0.7909910082817078,1.4432334899902344,3.128932476043701,-2.5896575450897217,5.1118364334106445,5.927175045013428,54674.0,49970.0,55136.0,50685.0,-0.29999491024331576,-0.5196181808098181,0.5
0.946,TAKEOFF,abrupt,1.0,0.5853192806243896,0.02159392647445202,0.010268962010741234,-0.13942021131515503,-0.052068937569856644,0.07095280289649963,0.9691359400749207,1.6648592948913574,-1.2016675472259521,4.759160995483398,23.08542251586914,10.415020942687988,52436.0,57686.0,53404.0,46368.0,0.6,0.0,0.5,-0.3696168065071106,0.5918269157409668,0.046503711491823196,-0.07462183386087418,-0.08838061988353729,0.217196986079216,0.08141836524009705,-2.176177501678467,4.64730978012085,-17.306215286254883,2.2100155353546143,18.390172958374023,53161.0,49194.0,52808.0,45904.0,-0.3000025448675481,0.51961377298239,0.5,-0.3611365258693695,-0.5224828124046326,0.024605991318821907,-0.013874365016818047,0.030392158776521683,0.20597881078720093,0.7088598012924194,1.2626678943634033,3.200901508331299,-6.385519027709961,12.035575866699219,2.951535224914551,54758.0,49852.0,54667.0,51549.0,-0.29999491024331576,-0.5196181808098181,0.5
0.966,TAKEOFF,abrupt,1.0,0.5853192806243896,0.02159392647445202,0.010268962010741234,-0.1512865126132965,-0.04467422515153885,0.07950803637504578,1.2659085988998413,1.2733882665634155,-0.9817070960998535,23.25762367248535,21.068706512451172,12.617386817932129,51175.0,56623.0,54975.0,48219.0,0.6,0.0,0.5,-0.3696168065071106,0.5918269157409668,0.046503711491823196,-0.06690067797899246,-0.08814309537410736,0.22662828862667084,-0.4257735311985016,-2.0527141094207764,5.025929927825928,-15.256315231323242,-7.170308589935303,15.460268020629883,52686.0,49244.0,52953.0,45554.0,-0.3000025448675481,0.51961377298239,0.5,-0.36461183428764343,-0.5152853727340698,0.041923340409994125,-0.014715511351823807,0.02672778069972992,0.22399775683879852,0.6064856648445129,1.024186134338379,3.2422802448272705,2.747140884399414,7.57509708404541,0.17879587411880493,54908.0,51090.0,54309.0,51281.0,-0.29999491024331576,-0.5196181808098181,0.5
0.986,TAKEOFF,abrupt,1.0,0.5853192806243896,0.02159392647445202,0.010268962010741234,-0.12767817080020905,-0.05906718224287033,0.09032769501209259,1.6507447957992554,0.6403617858886719,-0.7106420397758484,12.808876037597656,21.299365997314453,16.55137825012207,53368.0,56872.0,53636.0,47739.0,0.6,0.0,0.5,-0.3696168065071106,0.5918269157409668,0.046503711491823196,-0.07193048298358917,-0.05683675780892372,0.2622165381908417,-0.792488157749176,-1.908377766609192,5.356410026550293,-20.60140609741211,1.8136160373687744,15.153521537780762,52329.0,47938.0,53560.0,46750.0,-0.3000025448675481,0.51961377298239,0.5,-0.36461183428764343,-0.5152853727340698,0.041923340409994125,-0.018094301223754883,0.024226954206824303,0.2390521764755249,0.6935790181159973,0.8264964818954468,3.2287490367889404,11.798059463500977,9.63316535949707,-1.8258193731307983,54617.0,52557.0,53807.0,50732.0,-0.29999491024331576,-0.5196181808098181,0.5
1.006,TAKEOFF,abrupt,1.0,0.5743029117584229,0.017219413071870804,0.019292211160063744,-0.1303616166114807,-0.06472854316234589,0.09856606274843216,1.839409589767456,0.1977728307247162,-0.38081812858581543,-0.8825216293334961,25.994386672973633,17.77716827392578,51306.0,54259.0,56316.0,50934.0,0.6,0.0,0.5,-0.3761015832424164,0.5866023302078247,0.07067763805389404,-0.07193048298358917,-0.05683675780892372,0.2622165381908417,-1.194442868232727,-1.9402235746383667,5.647604465484619,-14.912961959838867,7.672565937042236,11.75598430633545,53266.0,48673.0,52764.0,46331.0,-0.3000025448675481,0.51961377298239,0.5,-0.36461183428764343,-0.5152853727340698,0.041923340409994125,0.002149212872609496,0.0049179536290466785,0.24947623908519745,1.0485948324203491,0.4660970866680145,3.2332310676574707,10.746185302734375,4.998351573944092,-1.9068399667739868,55498.0,52219.0,52572.0,51770.0,-0.29999491024331576,-0.5196181808098181,0.5
1.026,TAKEOFF,abrupt,1.0,0.5743029117584229,0.017219413071870804,0.019292211160063744,-0.1314593255519867,-0.07122679799795151,0.10865765064954758,1.4203076362609863,-0.2969421446323395,0.055525023490190506,-23.612274169921875,35.39582443237305,18.861047744750977,51914.0,53938.0,56083.0,51240.0,0.6,0.0,0.5,-0.3761015832424164,0.5866023302078247,0.07067763805389404,-0.06550070643424988,-0.05224115774035454,0.27059707045555115,-1.5457537174224854,-2.0264227390289307,5.924582004547119,2.2666962146759033,22.988323211669922,10.670215606689453,55397.0,48835.0,50399.0,46491.0,-0.3000025448675481,0.51961377298239,0.5,-0.36461183428764343,-0.5152853727340698,0.041923340409994125,0.010008255019783974,-0.0040699392557144165,0.26907211542129517,1.298547625541687,0.30045023560523987,3.2098164558410645,9.462077140808105,4.346556186676025,-4.202262878417969,55498.0,52219.0,52572.0,51770.0,-0.29999491024331576,-0.5196181808098181,0.5
1.047,TAKEOFF,abrupt,1.0,0.5743029117584229,0.017219413071870804,0.019292211160063744,-0.14466437697410583,-0.07146023213863373,0.13369013369083405,0.9287862777709961,-0.9696677327156067,0.3764897584915161,-52.11053466796875,29.228139877319336,16.869096755981445,49397.0,54024.0,58318.0,51106.0,0.6,0.0,0.5,-0.3761015832424164,0.5866023302078247,0.07067763805389404,-0.06316393613815308,-0.027184661477804184,0.295476496219635,-1.5421502590179443,-2.408046245574951,6.138307094573975,1.8795640468597412,28.79624366760254,9.125524520874023,54975.0,47892.0,51183.0,47237.0,-0.3000025448675481,0.51961377298239,0.5,-0.36461183428764343,-0.5152853727340698,0.041923340409994125,-0.011405408382415771,0.012463190592825413,0.27739760279655457,1.5078538656234741,0.21920150518417358,3.1383731365203857,9.977293968200684,-0.2011730670928955,-1.5741336345672607,54410.0,51475.0,54760.0,51959.0,-0.29999491024331576,-0.5196181808098181,0.5
1.067,TAKEOFF,abrupt,1.0,0.5743029117584229,0.017219413071870804,0.019292211160063744,-0.1368001252412796,-0.07782641798257828,0.1457468420267105,-0.30071672797203064,-1.454621434211731,0.7532817125320435,-66.5052490234375,20.034595489501953,12.97989273071289,51979.0,51985.0,56637.0,53259.0,0.6,0.0,0.5,-0.3761015832424164,0.5866023302078247,0.07067763805389404,-0.06316393613815308,-0.027184661477804184,0.295476496219635,-1.4804065227508545,-2.983126401901245,6.30763053894043,8.590518951416016,23.543447494506836,7.485760688781738,54969.0,48039.0,51182.0,47161.0,-0.3000025448675481,0.51961377298239,0.5,-0.35951027274131775,-0.5171774625778198,0.06713814288377762,-0.011892976239323616,0.00586675014346838,0.28122130036354065,1.5239742994308472,0.3496646583080292,3.0904126167297363,-0.9554360508918762,1.0637331008911133,1.0076972246170044,54442.0,51092.0,55224.0,52296.0,-0.29999491024331576,-0.5196181808098181,0.5
1.086,TAKEOFF,abrupt,1.0,0.5743029117584229,0.017219413071870804,0.019292211160063744,-0.1382806897163391,-0.06421981006860733,0.15990473330020905,-1.544726014137268,-1.9415901899337769,1.06132173538208,-52.336204528808594,25.504777908325195,16.00958824157715,52057.0,53342.0,56720.0,52303.0,0.6,0.0,0.5,-0.3761015832424164,0.5866023302078247,0.07067763805389404,-0.036826521158218384,-0.01045781560242176,0.30141013860702515,-1.3109593391418457,-3.5219149589538574,6.433938503265381,11.066813468933105,6.794552803039551,7.560980319976807,54126.0,49174.0,52262.0,46272.0,-0.3000025448675481,0.51961377298239,0.5,-0.35951027274131775,-0.5171774625778198,0.06713814288377762,0.005613981746137142,-0.011920801363885403,0.29273754358291626,1.5567423105239868,0.16704590618610382,3.1416001319885254,-12.10202407836914,3.0210320949554443,0.4970759451389313,55674.0,50684.0,53974.0,52838.0,-0.29999491024331576,-0.5196181808098181,0.5
1.106,TAKEOFF,abrupt,1.0,0.5639312267303467,0.012219714932143688,0.03787025436758995,-0.11877890676259995,-0.0657481849193573,0.17786642909049988,-2.314356803894043,-2.5676000118255615,1.3029632568359375,-11.469381332397461,24.719223022460938,11.502893447875977,52934.0,55645.0,56228.0,49289.0,0.6,0.0,0.5,-0.3845604658126831,0.5867204070091248,0.09975935518741608,-0.036826521158218384,-0.01045781560242176,0.30141013860702515,-0.780552327632904,-3.923243284225464,6.5214362144470215,5.157158851623535,-7.591805934906006,4.795591354370117,53608.0,49999.0,53050.0,45789.0,-0.3000025448675481,0.51961377298239,0.5,-0.35951027274131775,-0.5171774625778198,0.06713814288377762,0.005385309923440218,-0.017220403999090195,0.2995867431163788,1.2413592338562012,0.06281913816928864,3.1546008586883545,-19.06609344482422,9.34117603302002,-0.9511358737945557,55674.0,50684.0,53974.0,52838.0,-0.29999491024331576,-0.5196181808098181,0.5
1.126,TAKEOFF,abrupt,1.0,0.5639312267303467,0.012219714932143688,0.03787025436758995,-0.10980940610170364,-0.05746082961559296,0.19548803567886353,-2.539811134338379,-2.829584836959839,1.6311296224594116,15.446797370910645,15.76207160949707,11.609628677368164,55327.0,57068.0,53935.0,47492.0,0.6,0.0,0.5,-0.3845604658126831,0.5867204070091248,0.09975935518741608,0.010116169229149818,-0.04160406067967415,0.3001365065574646,-0.6191662549972534,-3.823439836502075,6.609612464904785,3.751002311706543,-17.29568099975586,2.75504469871521,54770.0,49832.0,51994.0,46638.0,-0.3000025448675481,0.51961377298239,0.5,-0.35951027274131775,-0.5171774625778198,0.06713814288377762,0.02209552563726902,-0.03255027160048485,0.30773860216140747,0.9118446111679077,-0.2646993100643158,3.178300619125366,-25.44703483581543,6.094911098480225,-0.7057408094406128,54696.0,50187.0,55026.0,53593.0,-0.29999491024331576,-0.5196181808098181,0.5
1.146,TAKEOFF,abrupt,1.0,0.5639312267303467,0.012219714932143688,0.03787025436758995,-0.11142958700656891,-0.02955055795609951,0.21207819879055023,-2.077178716659546,-3.0809757709503174,1.9097747802734375,31.121381759643555,18.785791397094727,10.786066055297852,55162.0,57322.0,53956.0,47921.0,0.6,0.0,0.5,-0.3845604658126831,0.5867204070091248,0.09975935518741608,0.03185994178056717,-0.04336916282773018,0.29984524846076965,-0.5537994503974915,-3.4270215034484863,6.692040920257568,-1.7736471891403198,-27.12886619567871,1.1349421739578247,54447.0,51178.0,52690.0,45464.0,-0.3000025448675481,0.51961377298239,0.5,-0.35951027274131775,-0.5171774625778198,0.06713814288377762,0.02332194894552231,-0.035286638885736465,0.3182734549045563,0.4539998173713684,-0.3383135199546814,3.157142400741577,-17.274181365966797,-3.2683491706848145,-0.49167707562446594,54843.0,53194.0,55065.0,51004.0,-0.29999491024331576,-0.5196181808098181,0.5
1.167,TAKEOFF,abrupt,1.0,0.5639312267303467,0.012219714932143688,0.03787025436758995,-0.08733756095170975,-0.02218712866306305,0.22511081397533417,-1.3620741367340088,-3.6289639472961426,2.06537127494812,29.608474731445312,18.46335792541504,9.175568580627441,54355.0,56205.0,54792.0,49817.0,0.6,0.0,0.5,-0.3845604658126831,0.5867204070091248,0.09975935518741608,0.04299771785736084,-0.039637643843889236,0.30995655059814453,-0.601878821849823,-2.874741792678833,6.741513252258301,-5.145470142364502,-30.077266693115234,-0.2087995857000351,54268.0,51264.0,52919.0,45500.0,-0.3000025448675481,0.51961377298239,0.5,-0.35169315338134766,-0.5239872932434082,0.09855085611343384,0.024525167420506477,-0.036531489342451096,0.3280671536922455,0.15769776701927185,-0.19156727194786072,3.1470561027526855,-7.963282585144043,-20.403553009033203,-1.030332088470459,53918.0,52778.0,56178.0,51706.0,-0.29999491024331576,-0.5196181808098181,0.5
1.186,TAKEOFF,abrupt,1.0,0.5639312267303467,0.012219714932143688,0.03787025436758995,-0.09402535110712051,-0.03384266048669815,0.23002107441425323,-0.7085922360420227,-3.8003242015838623,2.2345478534698486,26.20345115661621,9.372556686401367,9.884842872619629,52959.0,57741.0,55964.0,48544.0,0.6,0.0,0.5,-0.3845604658126831,0.5867204070091248,0.09975935518741608,0.05246519297361374,-0.035769205540418625,0.32093551754951477,-0.7393037676811218,-2.34521222114563,6.720152378082275,-11.756058692932129,-25.59895896911621,-1.8374667167663574,53714.0,49584.0,53438.0,47735.0,-0.3000025448675481,0.51961377298239,0.5,-0.35169315338134766,-0.5239872932434082,0.09855085611343384,-0.011350719258189201,-0.003215877339243889,0.3319624662399292,-0.27859577536582947,0.5086398720741272,3.0816705226898193,-8.234579086303711,-24.986576080322266,-0.9980421662330627,53524.0,52710.0,56731.0,51954.0,-0.29999491024331576,-0.5196181808098181,0.5
1.207,TAKEOFF,abrupt,1.0,0.5548527836799622,0.005427183583378792,0.0625649243593216,-0.07467573881149292,-0.03305055946111679,0.23818498849868774,-0.28663039207458496,-3.9156315326690674,2.344233512878418,7.233048439025879,0.805569052696228,7.990508079528809,53138.0,55988.0,56440.0,50808.0,0.6,0.0,0.5,-0.37632137537002563,0.5795742273330688,0.13004465401172638,0.0676470547914505,-0.0339973010122776,0.3218245208263397,-0.9881224632263184,-1.709489345550537,6.750351905822754,-14.262231826782227,-18.68618392944336,-3.6216418743133545,54068.0,49975.0,53248.0,47926.0,-0.3000025448675481,0.51961377298239,0.5,-0.35169315338134766,-0.5239872932434082,0.09855085611343384,-0.016140639781951904,0.00015023615560494363,0.3407987058162689,-0.4355067312717438,1.0237094163894653,3.048675298690796,-5.621447563171387,-22.24419593811035,-1.3032950162887573,55053.0,52586.0,55365.0,52261.0,-0.29999491024331576,-0.5196181808098181,0.5
1.226,TAKEOFF,abrupt,1.0,0.5548527836799622,0.005427183583378792,0.0625649243593216,-0.07113596796989441,-0.032876960933208466,0.24650447070598602,-0.14254575967788696,-3.8726325035095215,2.490389108657837,-8.457405090332031,-5.565408706665039,8.841638565063477,53755.0,55683.0,56861.0,50498.0,0.6,0.0,0.5,-0.37632137537002563,0.5795742273330688,0.13004465401172638,0.063237264752388,-0.024128705263137817,0.3335585296154022,-1.2765209674835205,-1.3460675477981567,6.652090549468994,-10.820062637329102,-12.805020332336426,-4.762972354888916,53834.0,50097.0,53333.0,48095.0,-0.3000025448675481,0.51961377298239,0.5,-0.35169315338134766,-0.5239872932434082,0.09855085611343384,-0.004595994018018246,-0.003376534441486001,0.34587836265563965,-0.46940532326698303,1.2802081108093262,3.0511529445648193,-0.5774706602096558,-8.335601806640625,-1.5879822969436646,55565.0,52831.0,55076.0,52330.0,-0.29999491024331576,-0.5196181808098181,0.5
1.246,TAKEOFF,abrupt,1.0,0.5548527836799622,0.005427183583378792,0.0625649243593216,-0.061032164841890335,-0.02547680027782917,0.2559800446033478,-0.46522262692451477,-3.8007123470306396,2.7531416416168213,-22.081226348876953,5.774192810058594,8.834305763244629,53043.0,55069.0,57529.0,51337.0,0.6,0.0,0.5,-0.37632137537002563,0.5795742273330688,0.13004465401172638,0.07161910086870193,-0.02052237093448639,0.34062305092811584,-1.5286202430725098,-0.9972999691963196,6.583457946777344,-7.491179466247559,-9.606478691101074,-6.617650985717773,53866.0,50730.0,53091.0,47402.0,-0.3000025448675481,0.51961377298239,0.5,-0.35169315338134766,-0.5239872932434082,0.09855085611343384,-0.009331589564681053,-0.0019819126464426517,0.3524104952812195,-0.409612238407135,1.3503328561782837,3.013362407684326,5.281984329223633,3.5724403858184814,-1.9489476680755615,55565.0,52831.0,55076.0,52330.0,-0.29999491024331576,-0.5196181808098181,0.5
1.266,TAKEOFF,abrupt,1.0,0.5548527836799622,0.005427183583378792,0.0625649243593216,-0.0477018803358078,-0.023479824885725975,0.2620004713535309,-0.9176559448242188,-3.881849527359009,2.9239349365234375,-21.66684341430664,4.997865200042725,8.884078025817871,53811.0,54606.0,56958.0,51644.0,0.6,0.0,0.5,-0.37632137537002563,0.5795742273330688,0.13004465401172638,0.0678102895617485,-0.012359890155494213,0.3522595167160034,-1.6904042959213257,-0.8081886172294617,6.464686393737793,-2.594919443130493,-4.428680896759033,-7.93762731552124,54242.0,50523.0,52246.0,47738.0,-0.3000025448675481,0.51961377298239,0.5,-0.353056401014328,-0.5219441652297974,0.13139615952968597,-0.01718524470925331,0.0012815512018278241,0.3601551055908203,-0.2728860676288605,1.1804029941558838,2.968738317489624,8.692660331726074,12.898517608642578,-3.224730968475342,56451.0,52597.0,53860.0,52645.0,-0.29999491024331576,-0.5196181808098181,0.5
1.286,TAKEOFF,abrupt,1.0,0.5548527836799622,0.005427183583378792,0.0625649243593216,-0.03415888175368309,-0.01991402357816696,0.2685181200504303,-1.235785961151123,-4.067622184753418,3.0871949195861816,-15.801207542419434,9.345044136047363,9.069819450378418,52630.0,55882.0,57839.0,50170.0,0.6,0.0,0.5,-0.37632137537002563,0.5795742273330688,0.13004465401172638,0.07855973392724991,-0.0026793426368385553,0.37690624594688416,-1.7337828874588013,-0.7561389803886414,6.288409233093262,0.5839678645133972,-3.749752998352051,-8.929109573364258,53936.0,49916.0,51862.0,48023.0,-0.3000025448675481,0.51961377298239,0.5,-0.353056401014328,-0.5219441652297974,0.13139615952968597,-0.02127997949719429,0.0019623017869889736,0.3694614768028259,-0.14105476438999176,0.9276730418205261,2.898348331451416,6.699623107910156,11.641491889953613,-2.8828775882720947,55969.0,52519.0,53573.0,53049.0,-0.29999491024331576,-0.5196181808098181,0.5
1.307,TAKEOFF,abrupt,1.0,0.5539679527282715,0.008851854130625725,0.09197536110877991,-0.01797913946211338,-0.007779857609421015,0.288211852312088,-1.460634469985962,-4.233957290649414,3.289642810821533,-7.950547695159912,6.308045864105225,8.61763858795166,54595.0,56078.0,55613.0,49665.0,0.6,0.0,0.5,-0.3665318191051483,0.5758491158485413,0.1639985740184784,0.07855973392724991,-0.0026793426368385553,0.37690624594688416,-1.7365831136703491,-0.7076914310455322,6.07451057434082,2.3981120586395264,-8.3388032913208,-10.761985778808594,53808.0,50956.0,51479.0,46905.0,-0.3000025448675481,0.51961377298239,0.5,-0.353056401014328,-0.5219441652297974,0.13139615952968597,-0.020993683487176895,-0.00503190653398633,0.3788298964500427,-0.001138814608566463,0.7122682332992554,2.824087381362915,0.8536822199821472,10.856803894042969,-1.1848995685577393,55428.0,51598.0,53938.0,53035.0,-0.29999491024331576,-0.5196181808098181,0.5
1.326,TAKEOFF,abrupt,1.0,0.5539679527282715,0.008851854130625725,0.09197536110877991,0.029186833649873734,-0.0013092566514387727,0.3029380738735199,-1.4732835292816162,-4.528841018676758,3.4896440505981445,5.669236183166504,-3.6349077224731445,6.985195636749268,55149.0,55743.0,55223.0,49180.0,0.6,0.0,0.5,-0.3665318191051483,0.5758491158485413,0.1639985740184784,0.08345288038253784,0.0031071393750607967,0.38496923446655273,-1.6783185005187988,-0.5673608183860779,5.864709377288818,3.9884467124938965,-10.452136993408203,-10.714475631713867,53122.0,50546.0,51834.0,47141.0,-0.3000025448675481,0.51961377298239,0.5,-0.353056401014328,-0.5219441652297974,0.13139615952968597,-0.022931352257728577,-0.0057742600329220295,0.38367629051208496,0.00825186911970377,0.45912519097328186,2.772390127182007,-3.345670223236084,9.25328254699707,-1.8773589134216309,54387.0,51450.0,54546.0,52768.0,-0.29999491024331576,-0.5196181808098181,0.5
1.346,TAKEOFF,abrupt,1.0,0.5539679527282715,0.008851854130625725,0.09197536110877991,0.04166107997298241,0.011043323203921318,0.3114791810512543,-1.3580063581466675,-4.369056701660156,3.6351895332336426,14.861348152160645,-13.269351959228516,7.147390365600586,54570.0,56709.0,55099.0,48626.0,0.6,0.0,0.5,-0.3665318191051483,0.5758491158485413,0.1639985740184784,0.08499149233102798,0.009410330094397068,0.395051509141922,-1.6067836284637451,-0.3059735894203186,5.667873859405518,5.397922039031982,-16.386550903320312,-11.41061019897461,52720.0,50567.0,51570.0,46430.0,-0.3000025448675481,0.51961377298239,0.5,-0.353056401014328,-0.5219441652297974,0.13139615952968597,-0.022433392703533173,-0.005767059046775103,0.39523833990097046,-0.07042990624904633,0.2968248724937439,2.724762201309204,-6.389869689941406,2.286356210708618,-0.874864935874939,54375.0,51501.0,54485.0,52323.0,-0.29999491024331576,-0.5196181808098181,0.5
1.366,TAKEOFF,abrupt,1.0,0.5539679527282715,0.008851854130625725,0.09197536110877991,0.07148135453462601,0.009920059703290462,0.3192409574985504,-1.1310763359069824,-4.338040828704834,3.6612656116485596,16.97108268737793,-20.39087677001953,3.6013331413269043,54770.0,57639.0,54754.0,47124.0,0.6,0.0,0.5,-0.3665318191051483,0.5758491158485413,0.1639985740184784,0.08049370348453522,0.015335573814809322,0.41436025500297546,-1.5508062839508057,0.036077920347452164,5.459261894226074,2.3600337505340576,-17.245630264282227,-9.26429557800293,52621.0,49769.0,50958.0,46828.0,-0.3000025448675481,0.51961377298239,0.5,-0.35339784622192383,-0.5247184038162231,0.16886237263679504,-0.022025175392627716,-0.006461912766098976,0.3989911377429962,-0.19314777851104736,0.2606123089790344,2.668813467025757,-7.233357906341553,-0.08329959213733673,-1.157097578048706,53975.0,51578.0,54369.0,51916.0,-0.29999491024331576,-0.5196181808098181,0.5
1.386,TAKEOFF,abrupt,1.0,0.5539679527282715,0.008851854130625725,0.09197536110877991,0.06944391876459122,-0.013256357982754707,0.31372958421707153,-0.5819564461708069,-3.836322784423828,3.6900129318237305,25.334548950195312,-27.036333084106445,4.580982208251953,54277.0,56623.0,55973.0,47864.0,0.6,0.0,0.5,-0.3665318191051483,0.5758491158485413,0.1639985740184784,0.046041667461395264,0.053607381880283356,0.43501290678977966,-1.7160049676895142,0.5800457000732422,5.338753700256348,6.607027530670166,-19.87191390991211,-11.39315128326416,51317.0,50169.0,51819.0,46075.0,-0.3000025448675481,0.51961377298239,0.5,-0.35339784622192383,-0.5247184038162231,0.16886237263679504,-0.01830173283815384,-0.007078199181705713,0.40814346075057983,-0.3366392254829407,0.24901075661182404,2.6157257556915283,-5.728001117706299,-3.4093053340911865,-1.4864182472229004,54157.0,51421.0,53745.0,51758.0,-0.29999491024331576,-0.5196181808098181,0.5
1.406,TAKEOFF,abrupt,1.0,0.5574613809585571,0.003230176866054535,0.12424693256616592,0.07703746110200882,-0.01408759318292141,0.3161868453025818,0.10483458638191223,-2.971911668777466,3.816793203353882,10.59896183013916,-25.987165451049805,3.264188051223755,53088.0,57114.0,56839.0,46839.0,0.6,0.0,0.5,-0.3644907772541046,0.5814114809036255,0.20577514171600342,0.046041667461395264,0.053607381880283356,0.43501290678977966,-1.5786939859390259,0.9729515314102173,5.1303534507751465,9.851174354553223,-13.549522399902344,-11.702911376953125,50766.0,50561.0,51916.0,45109.0,-0.3000025448675481,0.51961377298239,0.5,-0.35339784622192383,-0.5247184038162231,0.16886237263679504,-0.01929895021021366,-0.005825042258948088,0.4148085415363312,-0.4377772808074951,0.3131510615348816,2.5838065147399902,-3.1970508098602295,-4.9360785484313965,-1.5605487823486328,53937.0,51171.0,53529.0,51705.0,-0.29999491024331576,-0.5196181808098181,0.5
1.426,TAKEOFF,abrupt,1.0,0.5574613809585571,0.003230176866054535,0.12424693256616592,0.08764735609292984,-0.013429705984890461,0.31516051292419434,0.29923519492149353,-2.458041191101074,3.890087842941284,1.530900478363037,-20.5401668548584,4.147275924682617,54643.0,55956.0,55760.0,48016.0,0.6,0.0,0.5,-0.3644907772541046,0.5814114809036255,0.20577514171600342,0.04241309314966202,0.05901819467544556,0.4418177008628845,-1.4011521339416504,1.2486649751663208,4.914951801300049,14.113945960998535,-7.756368160247803,-9.82530403137207,51054.0,50362.0,51119.0,44939.0,-0.3000025448675481,0.51961377298239,0.5,-0.35339784622192383,-0.5247184038162231,0.16886237263679504,-0.020567290484905243,-0.004297799896448851,0.4198434352874756,-0.4606268107891083,0.42925888299942017,2.546903371810913,-0.19621792435646057,-4.673197269439697,-2.011324405670166,53063.0,51373.0,54237.0,50924.0,-0.29999491024331576,-0.5196181808098181,0.5
1.448,TAKEOFF,abrupt,1.0,0.5574613809585571,0.003230176866054535,0.12424693256616592,0.09712673723697662,-0.013724672608077526,0.31839242577552795,0.31196078658103943,-2.2176201343536377,3.9476065635681152,-11.987387657165527,-14.041238784790039,4.442238807678223,53391.0,56790.0,56704.0,47143.0,0.6,0.0,0.5,-0.3644907772541046,0.5814114809036255,0.20577514171600342,0.03778206929564476,0.06374964863061905,0.44760069251060486,-1.1962682008743286,1.3754878044128418,4.75977897644043,10.754488945007324,4.835898399353027,-10.312472343444824,51395.0,48713.0,50234.0,46331.0,-0.3000025448675481,0.51961377298239,0.5,-0.35339784622192383,-0.5247184038162231,0.16886237263679504,-0.02223561704158783,-0.002758873626589775,0.4239344298839569,-0.4636874198913574,0.5620058178901672,2.5176687240600586,-1.45060133934021,-9.996435165405273,-1.3694679737091064,53063.0,51373.0,54237.0,50924.0,-0.29999491024331576,-0.5196181808098181,0.5
1.467,TAKEOFF,abrupt,1.0,0.5574613809585571,0.003230176866054535,0.12424693256616592,0.10518535226583481,-0.004980727564543486,0.3337014317512512,0.13351066410541534,-1.84673273563385,3.989936351776123,-8.597118377685547,-16.940414428710938,2.068587064743042,52796.0,55005.0,56782.0,49252.0,0.6,0.0,0.5,-0.3644907772541046,0.5814114809036255,0.20577514171600342,0.027180157601833344,0.07313752174377441,0.4576953053474426,-0.9803342223167419,1.2606399059295654,4.5862555503845215,7.882831573486328,12.034805297851562,-10.107531547546387,52075.0,48357.0,48993.0,46363.0,-0.3000025448675481,0.51961377298239,0.5,-0.3452420234680176,-0.5319316983222961,0.21216970682144165,0.02532060630619526,-0.02891317568719387,0.430831640958786,-0.24908170104026794,0.3820558786392212,2.4900972843170166,-0.20800958573818207,-9.093055725097656,-3.3730950355529785,53235.0,51763.0,52477.0,50715.0,-0.29999491024331576,-0.5196181808098181,0.5
1.486,TAKEOFF,abrupt,1.0,0.5574613809585571,0.003230176866054535,0.12424693256616592,0.11051943153142929,-0.0002781867515295744,0.34352007508277893,-0.18672719597816467,-1.4913415908813477,4.072941303253174,-12.38687515258789,-6.605263710021973,7.207597255706787,52547.0,55514.0,56868.0,48455.0,0.6,0.0,0.5,-0.3644907772541046,0.5814114809036255,0.20577514171600342,0.027180157601833344,0.07313752174377441,0.4576953053474426,-0.5204159617424011,0.8162513971328735,4.340651512145996,9.561561584472656,11.849663734436035,-9.014106750488281,51572.0,48703.0,49057.0,45559.0,-0.3000025448675481,0.51961377298239,0.5,-0.3452420234680176,-0.5319316983222961,0.21216970682144165,0.008279972709715366,-0.01105952076613903,0.4252356290817261,-0.4906120300292969,0.8700550198554993,2.3281197547912598,-4.326577186584473,-12.372154235839844,-3.320539951324463,52344.0,51727.0,53284.0,50473.0,-0.29999491024331576,-0.5196181808098181,0.5
1.506,TAKEOFF,abrupt,1.0,0.5640814304351807,0.009380240924656391,0.15591217577457428,0.10739904642105103,0.023783942684531212,0.34019526839256287,-0.37429115176200867,-1.3008207082748413,4.153743267059326,-10.848969459533691,-4.527542591094971,4.508047580718994,53287.0,55410.0,56449.0,47971.0,0.6,0.0,0.5,-0.35720792412757874,0.583708643913269,0.24894475936889648,0.05474741384387016,0.0408172644674778,0.4411115348339081,-0.20000942051410675,0.49755609035491943,4.1312785148620605,9.4177827835083,5.293853282928467,-7.19111967086792,52379.0,48694.0,48340.0,45670.0,-0.3000025448675481,0.51961377298239,0.5,-0.3452420234680176,-0.5319316983222961,0.21216970682144165,0.00572076765820384,-0.009671851061284542,0.42656803131103516,-0.4906120300292969,0.8700550198554993,2.3281197547912598,-4.326577186584473,-12.372154235839844,-3.320539951324463,52592.0,50723.0,52832.0,51073.0,-0.29999491024331576,-0.5196181808098181,0.5
1.526,TAKEOFF,abrupt,1.0,0.5640814304351807,0.009380240924656391,0.15591217577457428,0.11161453276872635,0.025548268109560013,0.3402674198150635,-0.5720251202583313,-1.17755126953125,4.24346399307251,-3.7887353897094727,-1.7841310501098633,4.417880058288574,53338.0,54752.0,56435.0,48618.0,0.6,0.0,0.5,-0.35720792412757874,0.583708643913269,0.24894475936889648,0.06925211101770401,0.029542433097958565,0.42883703112602234,0.03879716992378235,0.37378719449043274,3.938284397125244,7.109827041625977,-5.378701686859131,-6.417311668395996,51424.0,49251.0,49384.0,45168.0,-0.3000025448675481,0.51961377298239,0.5,-0.3452420234680176,-0.5319316983222961,0.21216970682144165,0.01918991096317768,-0.017221931368112564,0.42638272047042847,-0.5412690043449402,0.9639158248901367,2.280437707901001,-7.357754707336426,-9.402588844299316,-3.4849419593811035,52302.0,51445.0,53099.0,49903.0,-0.29999491024331576,-0.5196181808098181,0.5
1.546,TAKEOFF,abrupt,1.0,0.5640814304351807,0.009380240924656391,0.15591217577457428,0.11538124084472656,0.0278826504945755,0.34152764081954956,-0.6109985709190369,-1.0759284496307373,4.318909168243408,11.126169204711914,-3.6190543174743652,3.653735399246216,54797.0,54433.0,54835.0,49048.0,0.6,0.0,0.5,-0.35720792412757874,0.583708643913269,0.24894475936889648,0.07625952363014221,0.0246618390083313,0.41954153776168823,0.19865499436855316,0.4981466829776764,3.774200439453125,0.7083455324172974,-10.956204414367676,-5.413272380828857,51703.0,49460.0,49034.0,44748.0,-0.3000025448675481,0.51961377298239,0.5,-0.3452420234680176,-0.5319316983222961,0.21216970682144165,0.0061727650463581085,-0.004059372004121542,0.4234022796154022,-0.761109471321106,1.2145682573318481,2.223658323287964,-3.73307204246521,-9.977709770202637,-2.3724563121795654,52302.0,51445.0,53099.0,49903.0,-0.29999491024331576,-0.5196181808098181,0.5
1.566,TAKEOFF,abrupt,1.0,0.5640814304351807,0.009380240924656391,0.15591217577457428,0.11894387751817703,0.030044863000512123,0.34263426065444946,-0.37375250458717346,-1.0806958675384521,4.4077959060668945,13.220619201660156,-1.4256951808929443,4.80691385269165,54425.0,55969.0,55075.0,46805.0,0.6,0.0,0.5,-0.35720792412757874,0.583708643913269,0.24894475936889648,0.06965958327054977,0.01873232237994671,0.4143865406513214,0.2015039026737213,0.7491341829299927,3.668471336364746,-7.281613349914551,-13.796472549438477,-5.005237102508545,49927.0,49324.0,50608.0,44668.0,-0.3000025448675481,0.51961377298239,0.5,-0.34212738275527954,-0.532002329826355,0.2534114420413971,0.02059769257903099,-0.012590000405907631,0.41938579082489014,-0.7765710949897766,1.2253340482711792,2.195801019668579,-3.604182004928589,-2.331209182739258,-1.7611998319625854,53504.0,49826.0,51281.0,51148.0,-0.29999491024331576,-0.5196181808098181,0.5
1.586,TAKEOFF,abrupt,1.0,0.5640814304351807,0.009380240924656391,0.15591217577457428,0.12263411283493042,0.0313543975353241,0.34410712122917175,-0.06959773600101471,-1.0942356586456299,4.492003917694092,8.198141098022461,0.8621665835380554,3.355116605758667,54842.0,55975.0,54553.0,46614.0,0.6,0.0,0.5,-0.35720792412757874,0.583708643913269,0.24894475936889648,0.049395784735679626,0.02536717616021633,0.4216082692146301,0.006459998432546854,1.180576205253601,3.6121559143066406,-11.236620903015137,-13.794282913208008,-5.709712505340576,49167.0,49441.0,50741.0,44245.0,-0.3000025448675481,0.51961377298239,0.5,-0.34212738275527954,-0.532002329826355,0.2534114420413971,0.016311317682266235,-0.010058792307972908,0.41730332374572754,-0.8366723656654358,1.2487270832061768,2.14851450920105,-1.9428757429122925,1.4907405376434326,-3.223592519760132,52667.0,50368.0,51783.0,50452.0,-0.29999491024331576,-0.5196181808098181,0.5
1.606,TAKEOFF,abrupt,1.0,0.5762777924537659,0.014576413668692112,0.19409091770648956,0.12633706629276276,0.031643543392419815,0.3428441286087036,0.09400653839111328,-1.0764493942260742,4.623283386230469,5.4690728187561035,-7.307121276855469,1.4990702867507935,54447.0,54951.0,54457.0,47119.0,0.6,0.0,0.5,-0.3547210693359375,0.5869272947311401,0.28987711668014526,0.049395784735679626,0.02536717616021633,0.4216082692146301,-0.19525262713432312,1.4323790073394775,3.5109405517578125,-14.834296226501465,-7.672000408172607,-5.530312538146973,49429.0,48169.0,50231.0,45075.0,-0.3000025448675481,0.51961377298239,0.5,-0.34212738275527954,-0.532002329826355,0.2534114420413971,0.011997913010418415,-0.007340733427554369,0.41500532627105713,-0.8718118071556091,1.228456974029541,2.083562135696411,0.6917684674263,-2.1374239921569824,-2.6469271183013916,52300.0,50146.0,51893.0,49935.0,-0.29999491024331576,-0.5196181808098181,0.5
1.626,TAKEOFF,abrupt,1.0,0.5762777924537659,0.014576413668692112,0.19409091770648956,0.1319759041070938,0.04545353725552559,0.3656288981437683,0.3069547414779663,-0.9887285232543945,4.67091703414917,9.096553802490234,-9.139625549316406,3.315380811691284,55328.0,55450.0,53727.0,45715.0,0.6,0.0,0.5,-0.3547210693359375,0.5869272947311401,0.28987711668014526,0.04952307417988777,0.021843988448381424,0.41452908515930176,-0.4754981994628906,1.583524227142334,3.415433883666992,-11.302340507507324,-0.9528943300247192,-5.819991588592529,49632.0,48008.0,49763.0,45212.0,-0.3000025448675481,0.51961377298239,0.5,-0.34212738275527954,-0.532002329826355,0.2534114420413971,-0.02022799663245678,0.005981161259114742,0.41160041093826294,-0.8147320747375488,1.3637198209762573,2.021632432937622,0.4360315501689911,-4.456822395324707,-2.6417672634124756,51709.0,49956.0,52379.0,50386.0,-0.29999491024331576,-0.5196181808098181,0.5
1.647,TAKEOFF,abrupt,1.0,0.5762777924537659,0.014576413668692112,0.19409091770648956,0.1352432668209076,0.044470276683568954,0.3630889058113098,0.6653152704238892,-0.748855471611023,4.670013427734375,8.834000587463379,-16.323062896728516,0.9933642745018005,53079.0,55308.0,55720.0,46545.0,0.6,0.0,0.5,-0.3547210693359375,0.5869272947311401,0.28987711668014526,0.04461098089814186,0.022181008011102676,0.4073486030101776,-0.7174942493438721,1.65095055103302,3.366321563720703,-2.5630931854248047,3.143131971359253,-2.4814605712890625,50315.0,47991.0,49352.0,44681.0,-0.3000025448675481,0.51961377298239,0.5,-0.34212738275527954,-0.532002329826355,0.2534114420413971,-0.01844739355146885,0.009503200650215149,0.40263649821281433,-0.8758284449577332,1.4849735498428345,1.999039649963379,0.13418711721897125,-5.053122043609619,-2.75795316696167,51817.0,49994.0,52221.0,50158.0,-0.29999491024331576,-0.5196181808098181,0.5
1.666,TAKEOFF,abrupt,1.0,0.5762777924537659,0.014576413668692112,0.19409091770648956,0.13421569764614105,0.03406132012605667,0.3528677225112915,0.8427237868309021,-0.45292744040489197,4.645063400268555,0.03888653591275215,-13.723280906677246,1.1425466537475586,52575.0,55613.0,56107.0,46133.0,0.6,0.0,0.5,-0.3547210693359375,0.5869272947311401,0.28987711668014526,0.028823306784033775,0.03028981015086174,0.3960811495780945,-0.7656881809234619,1.5882025957107544,3.3078460693359375,5.378335952758789,7.360846519470215,-3.7690517902374268,50973.0,48884.0,48399.0,43695.0,-0.3000025448675481,0.51961377298239,0.5,-0.3449045717716217,-0.5302894711494446,0.2943100333213806,-0.025883855298161507,0.014323056675493717,0.39735081791877747,-0.9151533246040344,1.616502046585083,1.942458987236023,0.6471264362335205,-2.076853036880493,-2.171393871307373,52479.0,49339.0,51683.0,50567.0,-0.29999491024331576,-0.5196181808098181,0.5
1.687,TAKEOFF,abrupt,1.0,0.5762777924537659,0.014576413668692112,0.19409091770648956,0.13594186305999756,0.029563451185822487,0.3456122875213623,0.8993602991104126,-0.1652268022298813,4.673068046569824,2.7603650093078613,-8.69704818725586,1.5191113948822021,52974.0,53496.0,55555.0,48677.0,0.6,0.0,0.5,-0.3547210693359375,0.5869272947311401,0.28987711668014526,0.028823306784033775,0.03028981015086174,0.3960811495780945,-0.6513980627059937,1.4423476457595825,3.226625680923462,8.841253280639648,6.262768268585205,-2.6822824478149414,50850.0,48516.0,48451.0,43895.0,-0.3000025448675481,0.51961377298239,0.5,-0.3449045717716217,-0.5302894711494446,0.2943100333213806,-0.019957799464464188,0.011950211599469185,0.3888074457645416,-0.7367058992385864,1.5653241872787476,1.8926361799240112,5.809729099273682,4.205488681793213,-1.6002018451690674,52361.0,49746.0,51741.0,50052.0,-0.29999491024331576,-0.5196181808098181,0.5
1.706,TAKEOFF,abrupt,1.0,0.5891177654266357,0.016240354627370834,0.23025566339492798,0.13724686205387115,0.024513261392712593,0.3464220464229584,0.9279870986938477,0.03882208466529846,4.722708225250244,1.9331066608428955,-13.087897300720215,-2.358367681503296,51536.0,54552.0,56860.0,46852.0,0.6,0.0,0.5,-0.3525618314743042,0.5909304022789001,0.33016225695610046,0.032369181513786316,0.019147390499711037,0.372306764125824,-0.37987732887268066,1.1421277523040771,3.1279892921447754,7.422979831695557,8.02137279510498,-2.5240280628204346,50670.0,48078.0,48541.0,44569.0,-0.3000025448675481,0.51961377298239,0.5,-0.3449045717716217,-0.5302894711494446,0.2943100333213806,-0.025346748530864716,0.014479507692158222,0.3813236355781555,-0.6051725745201111,1.4545979499816895,1.862603783607483,7.964084625244141,7.3687214851379395,-1.904720664024353,53108.0,50006.0,50980.0,49619.0,-0.29999491024331576,-0.5196181808098181,0.5
1.726,TAKEOFF,abrupt,1.0,0.5891177654266357,0.016240354627370834,0.23025566339492798,0.1365465372800827,0.018197402358055115,0.3459358215332031,0.8999224901199341,0.322289377450943,4.747986316680908,-6.29398250579834,-4.37378454208374,2.0581274032592773,53079.0,55503.0,54242.0,46907.0,0.6,0.0,0.5,-0.3525618314743042,0.5909304022789001,0.33016225695610046,0.027143120765686035,0.019899846985936165,0.3711303472518921,-0.24331042170524597,0.9661674499511719,3.0666399002075195,2.3922173976898193,7.267601490020752,-1.4438847303390503,51037.0,48175.0,48268.0,44309.0,-0.3000025448675481,0.51961377298239,0.5,-0.3449045717716217,-0.5302894711494446,0.2943100333213806,-0.03046051412820816,0.01662391982972622,0.37221574783325195,-0.6051725745201111,1.4545979499816895,1.862603783607483,7.964084625244141,7.3687214851379395,-1.904720664024353,53112.0,49984.0,50698.0,49321.0,-0.29999491024331576,-0.5196181808098181,0.5
1.746,TAKEOFF,abrupt,1.0,0.5891177654266357,0.016240354627370834,0.23025566339492798,0.13994501531124115,0.006944611202925444,0.35703593492507935,0.8477237820625305,0.4433993101119995,4.679210186004639,3.1687448024749756,-6.724374771118164,3.002115249633789,53636.0,53873.0,53994.0,48031.0,0.6,0.0,0.5,-0.3525618314743042,0.5909304022789001,0.33016225695610046,0.027143120765686035,0.019899846985936165,0.3711303472518921,-0.1857781708240509,0.8353551030158997,3.0383615493774414,-3.5448882579803467,5.104329586029053,-2.065324544906616,50075.0,48080.0,48999.0,44107.0,-0.3000025448675481,0.51961377298239,0.5,-0.3449045717716217,-0.5302894711494446,0.2943100333213806,-0.04443831369280815,0.007476015482097864,0.37027084827423096,-0.40624135732650757,1.3846442699432373,1.8145911693572998,6.5636091232299805,7.193178176879883,-2.051450252532959,52274.0,49032.0,50898.0,50336.0,-0.29999491024331576,-0.5196181808098181,0.5
1.767,TAKEOFF,abrupt,1.0,0.5891177654266357,0.016240354627370834,0.23025566339492798,0.13962313532829285,-4.115111005376093e-05,0.3612183630466461,0.8875436782836914,0.557194173336029,4.704295635223389,-2.4926247596740723,-4.046340465545654,1.9199974536895752,51376.0,54328.0,56070.0,46588.0,0.6,0.0,0.5,-0.3525618314743042,0.5909304022789001,0.33016225695610046,0.024227583780884743,0.020383846014738083,0.3642086386680603,-0.2527267038822174,0.7421817183494568,2.9976205825805664,-7.5451459884643555,0.9414834976196289,-2.5154848098754883,49894.0,46880.0,48998.0,45385.0,-0.3000025448675481,0.51961377298239,0.5,-0.3437812924385071,-0.5354161858558655,0.33404719829559326,-0.029395436868071556,-0.003977810963988304,0.36942949891090393,-0.19431418180465698,1.111080288887024,1.775953769683838,1.422084927558899,6.102496147155762,-1.5394777059555054,52274.0,49032.0,50898.0,50336.0,-0.29999491024331576,-0.5196181808098181,0.5
1.786,TAKEOFF,abrupt,1.0,0.5891177654266357,0.016240354627370834,0.23025566339492798,0.1363164633512497,0.0006529932143166661,0.3527674674987793,0.816142737865448,0.6630046367645264,4.778797149658203,-1.3225469589233398,-7.726404190063477,-0.35729852318763733,52955.0,53359.0,54719.0,47620.0,0.6,0.0,0.5,-0.3525618314743042,0.5909304022789001,0.33016225695610046,0.021709909662604332,0.02098696306347847,0.35444459319114685,-0.4230724573135376,0.6824008226394653,2.945781946182251,-12.803546905517578,1.6556377410888672,-1.8904399871826172,49309.0,45924.0,49484.0,46364.0,-0.3000025448675481,0.51961377298239,0.5,-0.3437812924385071,-0.5354161858558655,0.33404719829559326,-0.03367249295115471,-0.0008842132519930601,0.36754387617111206,-0.28554782271385193,1.0112066268920898,1.6652997732162476,-4.187225341796875,0.7086844444274902,-2.971372365951538,51722.0,49754.0,51090.0,49407.0,-0.29999491024331576,-0.5196181808098181,0.5
1.806,TAKEOFF,abrupt,1.0,0.6069011092185974,0.014092185534536839,0.27289503812789917,0.1415330469608307,-0.004937123041599989,0.35492026805877686,0.8310543894767761,0.736514151096344,4.798269748687744,-9.339561462402344,-6.686012268066406,0.7370406985282898,53971.0,53716.0,53656.0,46769.0,0.6,0.0,0.5,-0.3480299115180969,0.5904341340065002,0.36690184473991394,0.01937068998813629,0.022083085030317307,0.3459092378616333,-0.9335143566131592,0.9356572031974792,2.9431278705596924,-10.157867431640625,2.6610937118530273,-4.27033805847168,47888.0,46567.0,50430.0,45628.0,-0.3000025448675481,0.51961377298239,0.5,-0.3437812924385071,-0.5354161858558655,0.33404719829559326,-0.03698968142271042,-0.00027139627491123974,0.3557906448841095,-0.28554782271385193,1.0112066268920898,1.6652997732162476,-4.187225341796875,0.7086844444274902,-2.971372365951538,51722.0,49754.0,51090.0,49407.0,-0.29999491024331576,-0.5196181808098181,0.5
1.826,TAKEOFF,abrupt,1.0,0.6069011092185974,0.014092185534536839,0.27289503812789917,0.1404849737882614,-0.006047755014151335,0.35564613342285156,0.7781005501747131,0.7913872599601746,4.784992694854736,-1.5514225959777832,-5.577319622039795,2.3170619010925293,52712.0,52449.0,54938.0,47653.0,0.6,0.0,0.5,-0.3480299115180969,0.5904341340065002,0.36690184473991394,-0.02659241482615471,0.06075069680809975,0.33286023139953613,-1.1431677341461182,0.9056781530380249,2.8643007278442383,-6.6391215324401855,1.4526829719543457,-3.643634557723999,48382.0,47601.0,49968.0,44498.0,-0.3000025448675481,0.51961377298239,0.5,-0.3437812924385071,-0.5354161858558655,0.33404719829559326,-0.051733437925577164,0.013799998909235,0.3301723599433899,-0.4852581322193146,1.1100300550460815,1.6401324272155762,-5.377132892608643,-2.748142957687378,-3.460827112197876,51073.0,49870.0,52006.0,49996.0,-0.29999491024331576,-0.5196181808098181,0.5
1.846,TAKEOFF,abrupt,1.0,0.6069011092185974,0.014092185534536839,0.27289503812789917,0.13806314766407013,-0.008777732960879803,0.3469265103340149,0.6524932980537415,0.8649159073829651,4.812075138092041,-14.61819076538086,-0.3340291380882263,-0.479807585477829,52149.0,54453.0,54989.0,45575.0,0.6,0.0,0.5,-0.3480299115180969,0.5904341340065002,0.36690184473991394,-0.02659241482615471,0.06075069680809975,0.33286023139953613,-1.0830782651901245,0.677997887134552,2.73850417137146,3.60563063621521,7.156639099121094,-2.9666240215301514,48997.0,47901.0,48278.0,46034.0,-0.3000025448675481,0.51961377298239,0.5,-0.3437812924385071,-0.5354161858558655,0.33404719829559326,-0.0524904690682888,0.0056881774216890335,0.3239533603191376,-0.5198014378547668,1.0610008239746094,1.580655574798584,-0.6137502193450928,0.36213016510009766,-3.152209997177124,52107.0,50748.0,51160.0,49138.0,-0.29999491024331576,-0.5196181808098181,0.5
1.866,TAKEOFF,abrupt,1.0,0.6069011092185974,0.014092185534536839,0.27289503812789917,0.13530704379081726,-0.011001215316355228,0.34322911500930786,0.3857487440109253,0.9511664509773254,4.8121795654296875,-11.407892227172852,3.2890048027038574,1.3133182525634766,51781.0,52702.0,55400.0,47585.0,0.6,0.0,0.5,-0.3480299115180969,0.5904341340065002,0.36690184473991394,-0.006313970312476158,0.04469454661011696,0.3061068058013916,-0.9558232426643372,0.4971039593219757,2.6345510482788086,15.755256652832031,11.9924898147583,-2.726546049118042,51247.0,48506.0,45898.0,45617.0,-0.3000025448675481,0.51961377298239,0.5,-0.34861478209495544,-0.531563401222229,0.36664333939552307,-0.05656249448657036,0.009835994802415371,0.30757054686546326,-0.5045910477638245,1.0823055505752563,1.5252268314361572,3.65653133392334,1.696932315826416,-2.6310791969299316,52107.0,50748.0,51160.0,49138.0,-0.29999491024331576,-0.5196181808098181,0.5
1.887,TAKEOFF,abrupt,1.0,0.6069011092185974,0.014092185534536839,0.27289503812789917,0.10180196166038513,-0.020317990332841873,0.3433687090873718,0.1935315579175949,1.2164517641067505,4.780359268188477,-20.634668350219727,-11.268804550170898,1.993808627128601,51081.0,52728.0,55705.0,47439.0,0.6,0.0,0.5,-0.3480299115180969,0.5904341340065002,0.36690184473991394,-0.0034991875290870667,0.046391136944293976,0.2889484465122223,-0.741843044757843,0.37915876507759094,2.622026205062866,18.275020599365234,10.218098640441895,-1.4651641845703125,51084.0,47715.0,47708.0,44913.0,-0.3000025448675481,0.51961377298239,0.5,-0.34861478209495544,-0.531563401222229,0.36664333939552307,-0.06004680320620537,0.011323422193527222,0.2955378293991089,-0.42537713050842285,1.0187824964523315,1.4715619087219238,4.557168960571289,6.018108367919922,-2.00546932220459,52152.0,49674.0,52023.0,49771.0,-0.29999491024331576,-0.5196181808098181,0.5
1.906,TAKEOFF,abrupt,1.0,0.6113650798797607,0.014308291487395763,0.3072081506252289,0.08351393043994904,-0.0003109541139565408,0.3319765031337738,-0.3033348619937897,1.4709900617599487,4.811387538909912,-10.265056610107422,-4.7393999099731445,0.9973977208137512,51793.0,53754.0,55278.0,46060.0,0.6,0.0,0.5,-0.35495656728744507,0.6004870533943176,0.39614036679267883,-0.01034093089401722,0.050249844789505005,0.26418596506118774,-0.33141112327575684,0.029439236968755722,2.5498034954071045,16.56836700439453,5.8050537109375,-0.868237316608429,50506.0,49423.0,47480.0,44043.0,-0.3000025448675481,0.51961377298239,0.5,-0.34861478209495544,-0.531563401222229,0.36664333939552307,-0.07650906592607498,0.01869967207312584,0.28278952836990356,-0.3896239101886749,0.9815713167190552,1.4077885150909424,2.640378713607788,9.212703704833984,-1.2665044069290161,51838.0,50653.0,51687.0,49445.0,-0.29999491024331576,-0.5196181808098181,0.5
1.926,TAKEOFF,abrupt,1.0,0.6113650798797607,0.014308291487395763,0.3072081506252289,0.08100959658622742,-1.3976560694572981e-05,0.3301539123058319,-0.5339342355728149,1.5645403861999512,4.856346607208252,-0.27310478687286377,-0.37770459055900574,0.9098708033561707,51835.0,52265.0,55039.0,48051.0,0.6,0.0,0.5,-0.35495656728744507,0.6004870533943176,0.39614036679267883,-0.011255071498453617,0.05090002343058586,0.2555029094219208,-0.0054421802051365376,-0.14823321998119354,2.5285189151763916,10.40615463256836,6.935964584350586,0.04922713339328766,50249.0,47616.0,49150.0,45377.0,-0.3000025448675481,0.51961377298239,0.5,-0.34861478209495544,-0.531563401222229,0.36664333939552307,-0.07961026579141617,0.019872207194566727,0.27408304810523987,-0.35462772846221924,0.7800127863883972,1.3664121627807617,1.3042070865631104,9.523335456848145,-2.446345329284668,52222.0,49162.0,51257.0,50881.0,-0.29999491024331576,-0.5196181808098181,0.5
1.946,TAKEOFF,abrupt,1.0,0.6113650798797607,0.014308291487395763,0.3072081506252289,0.088163822889328,0.0008174173417501152,0.32822880148887634,-0.6493747234344482,1.4932525157928467,4.844086647033691,-1.0334570407867432,3.930762529373169,1.8080891370773315,54604.0,52778.0,52529.0,46948.0,0.6,0.0,0.5,-0.35495656728744507,0.6004870533943176,0.39614036679267883,-0.019994428381323814,0.05683530122041702,0.24853090941905975,0.18663033843040466,-0.20173165202140808,2.5323007106781006,4.2926106452941895,4.294647216796875,0.4416012763977051,49991.0,47536.0,49436.0,45103.0,-0.3000025448675481,0.51961377298239,0.5,-0.34861478209495544,-0.531563401222229,0.36664333939552307,-0.062041569501161575,0.00763275008648634,0.26710695028305054,-0.24338430166244507,0.414028525352478,1.3250449895858765,-1.5037332773208618,10.875188827514648,-2.051072835922241,52964.0,49672.0,50681.0,50320.0,-0.29999491024331576,-0.5196181808098181,0.5
1.967,TAKEOFF,abrupt,1.0,0.6113650798797607,0.014308291487395763,0.3072081506252289,0.07398391515016556,0.001592724584043026,0.3212883472442627,-0.5404508113861084,1.4377920627593994,4.820272445678711,3.8126235008239746,11.861333847045898,1.5236581563949585,52167.0,53695.0,54731.0,45552.0,0.6,0.0,0.5,-0.35495656728744507,0.6004870533943176,0.39614036679267883,-0.019994428381323814,0.05683530122041702,0.24853090941905975,0.25022169947624207,-0.16417677700519562,2.597935676574707,6.867882251739502,-4.720634460449219,0.9249376654624939,49644.0,48581.0,50181.0,43161.0,-0.3000025448675481,0.51961377298239,0.5,-0.3526868224143982,-0.5334415435791016,0.3946020007133484,-0.05539702996611595,0.0034935232251882553,0.2567954659461975,-0.3903968334197998,-0.025850819423794746,1.288535237312317,0.4533257782459259,5.777877330780029,-1.2327511310577393,52154.0,49883.0,51746.0,50188.0,-0.29999491024331576,-0.5196181808098181,0.5
1.986,TAKEOFF,abrupt,1.0,0.6113650798797607,0.014308291487395763,0.3072081506252289,0.065726138651371,-0.001481097424402833,0.30954745411872864,-0.3805881142616272,1.2167587280273438,4.787246227264404,8.106584548950195,13.92796516418457,-1.1316457986831665,53737.0,52960.0,53132.0,46422.0,0.6,0.0,0.5,-0.35495656728744507,0.6004870533943176,0.39614036679267883,-0.028291894122958183,0.062421150505542755,0.24406185746192932,0.2843959927558899,-0.07571422308683395,2.659846305847168,3.7473325729370117,-3.072774887084961,1.8623963594436646,49317.0,48460.0,50290.0,43380.0,-0.3000025448675481,0.51961377298239,0.5,-0.3526868224143982,-0.5334415435791016,0.3946020007133484,-0.06068852171301842,0.02650248445570469,0.24501600861549377,-0.3903968334197998,-0.025850819423794746,1.288535237312317,0.4533257782459259,5.777877330780029,-1.2327511310577393,52475.0,49879.0,51832.0,49936.0,-0.29999491024331576,-0.5196181808098181,0.5
2.006,TAKEOFF,abrupt,1.0,0.6216691136360168,0.010050931945443153,0.34219735860824585,0.065726138651371,-0.001481097424402833,0.30954745411872864,-0.2406802922487259,0.9444324970245361,4.778407573699951,4.832582473754883,13.377203941345215,-1.1115717887878418,54141.0,53289.0,52726.0,45838.0,0.6,0.0,0.5,-0.36031702160835266,0.6080028414726257,0.42338624596595764,-0.032551005482673645,0.06588581949472427,0.24145618081092834,0.4124177396297455,-0.0960315465927124,2.702954053878784,8.140259742736816,-1.7339421510696411,2.196894645690918,50114.0,49418.0,49166.0,42339.0,-0.3000025448675481,0.51961377298239,0.5,-0.3526868224143982,-0.5334415435791016,0.3946020007133484,-0.06630861759185791,0.021450072526931763,0.240556001663208,-0.3261859118938446,-0.06525948643684387,1.2396043539047241,2.9977831840515137,1.7280253171920776,-0.9347777962684631,52576.0,50199.0,51719.0,49596.0,-0.29999491024331576,-0.5196181808098181,0.5
2.026,TAKEOFF,abrupt,1.0,0.6216691136360168,0.010050931945443153,0.34219735860824585,0.06411890685558319,-0.0012104972265660763,0.3069021701812744,-0.2869313657283783,0.7407196760177612,4.810941696166992,0.11617934703826904,6.842859745025635,0.8711381554603577,53412.0,52473.0,53233.0,46863.0,0.6,0.0,0.5,-0.36031702160835266,0.6080028414726257,0.42338624596595764,-0.03194603696465492,0.05927029997110367,0.22518184781074524,0.5172452926635742,-0.047008171677589417,2.7612738609313965,11.275213241577148,2.4887161254882812,2.095508337020874,51047.0,48407.0,48580.0,43592.0,-0.3000025448675481,0.51961377298239,0.5,-0.3526868224143982,-0.5334415435791016,0.3946020007133484,-0.07470017671585083,0.02693984843790531,0.22640004754066467,-0.29447031021118164,-0.01893683150410652,1.1973357200622559,5.564964771270752,0.5798802971839905,-1.1232739686965942,52600.0,50167.0,51744.0,50050.0,-0.29999491024331576,-0.5196181808098181,0.5
2.046,TAKEOFF,abrupt,1.0,0.6216691136360168,0.010050931945443153,0.34219735860824585,0.05553120747208595,0.01348023023456335,0.3009779751300812,-0.29818204045295715,0.5979052186012268,4.807621002197266,-2.5515263080596924,4.335570335388184,-0.2626367509365082,52844.0,52954.0,53591.0,46736.0,0.6,0.0,0.5,-0.36031702160835266,0.6080028414726257,0.42338624596595764,-0.03194603696465492,0.05927029997110367,0.22518184781074524,0.7639937996864319,-0.10988534241914749,2.797503709793091,11.63827133178711,8.717140197753906,-1.0318286418914795,51332.0,48631.0,48166.0,43387.0,-0.3000025448675481,0.51961377298239,0.5,-0.3526868224143982,-0.5334415435791016,0.3946020007133484,-0.07465696334838867,0.02781391330063343,0.21578767895698547,-0.16035282611846924,-0.013035020790994167,1.1745346784591675,7.839578151702881,0.41324368119239807,-0.4996581971645355,52823.0,50118.0,51975.0,49866.0,-0.29999491024331576,-0.5196181808098181,0.5
2.066,TAKEOFF,abrupt,1.0,0.6216691136360168,0.010050931945443153,0.34219735860824585,0.08002084493637085,0.007939410395920277,0.29284894466400146,-0.39971330761909485,0.3150002658367157,4.806460380554199,-0.9723177552223206,5.452817916870117,-0.9332272410392761,52543.0,52188.0,53705.0,47672.0,0.6,0.0,0.5,-0.36031702160835266,0.6080028414726257,0.42338624596595764,-0.03155528008937836,0.05705439671874046,0.21445274353027344,0.9944904446601868,-0.27102765440940857,2.81149959564209,8.256728172302246,11.808056831359863,0.836259126663208,51200.0,47195.0,48481.0,45128.0,-0.3000025448675481,0.51961377298239,0.5,-0.3643888533115387,-0.5270101428031921,0.4175933599472046,-0.07256704568862915,0.0317540317773819,0.2114061415195465,0.012389492243528366,-0.039670128375291824,1.1698909997940063,7.7727460861206055,3.3163840770721436,0.628657877445221,52823.0,50118.0,51975.0,49866.0,-0.29999491024331576,-0.5196181808098181,0.5
2.086,TAKEOFF,abrupt,1.0,0.6216691136360168,0.010050931945443153,0.34219735860824585,0.07535607367753983,0.023562952876091003,0.28622129559516907,-0.46489429473876953,0.2515622079372406,4.777735710144043,-3.092841863632202,-3.277254819869995,-2.7300310134887695,53247.0,52379.0,52976.0,47596.0,0.6,0.0,0.5,-0.36031702160835266,0.6080028414726257,0.42338624596595764,-0.016962671652436256,0.057478439062833786,0.18126825988292694,1.0931366682052612,-0.5982025265693665,2.7978768348693848,1.696954369544983,13.414838790893555,0.5092406868934631,50691.0,46953.0,49343.0,45886.0,-0.3000025448675481,0.51961377298239,0.5,-0.3643888533115387,-0.5270101428031921,0.4175933599472046,-0.07142732292413712,0.029556890949606895,0.2120809704065323,0.08840403705835342,-0.10644194483757019,1.1828454732894897,4.800724506378174,10.346628189086914,0.33205536007881165,53104.0,49765.0,51463.0,50035.0,-0.29999491024331576,-0.5196181808098181,0.5
2.106,TAKEOFF,abrupt,1.0,0.6302762627601624,0.015979567542672157,0.3731246888637543,0.07440134882926941,0.024901602417230606,0.27599036693573,-0.5188143253326416,0.31682977080345154,4.750168800354004,2.2255399227142334,-6.4649224281311035,-1.414555549621582,52940.0,52392.0,53560.0,47359.0,0.6,0.0,0.5,-0.35959967970848083,0.61481773853302,0.4425758123397827,-0.015618111938238144,0.05569414794445038,0.17863234877586365,1.1079286336898804,-0.8862931132316589,2.784057140350342,-2.0654234886169434,10.024971008300781,-0.5846177935600281,50934.0,47552.0,49305.0,45561.0,-0.3000025448675481,0.51961377298239,0.5,-0.3643888533115387,-0.5270101428031921,0.4175933599472046,-0.0621136911213398,0.023686790838837624,0.20196840167045593,0.2334195375442505,-0.37310120463371277,1.2264013290405273,3.3073203563690186,9.060859680175781,-0.5535221099853516,52763.0,48563.0,51924.0,51112.0,-0.29999491024331576,-0.5196181808098181,0.5
2.126,TAKEOFF,abrupt,1.0,0.6302762627601624,0.015979567542672157,0.3731246888637543,0.07328016310930252,0.026485610753297806,0.2660225033760071,-0.44698137044906616,0.4097004532814026,4.7306904792785645,16.625669479370117,-5.027642250061035,2.250006914138794,52982.0,52594.0,53996.0,46669.0,0.6,0.0,0.5,-0.35959967970848083,0.61481773853302,0.4425758123397827,-0.015618111938238144,0.05569414794445038,0.17863234877586365,1.071577548980713,-1.085468053817749,2.7756083011627197,-2.447097063064575,4.499792098999023,-1.2947312593460083,50658.0,47594.0,49619.0,45630.0,-0.3000025448675481,0.51961377298239,0.5,-0.3643888533115387,-0.5270101428031921,0.4175933599472046,-0.05480332672595978,0.012362953275442123,0.1983276605606079,0.3417056202888489,-0.6073384881019592,1.2074272632598877,-5.239738464355469,8.958718299865723,0.12726128101348877,52763.0,48563.0,51924.0,51112.0,-0.29999491024331576,-0.5196181808098181,0.5
2.146,TAKEOFF,abrupt,1.0,0.6302762627601624,0.015979567542672157,0.3731246888637543,0.07190250605344772,0.027902759611606598,0.25416404008865356,-0.2733095586299896,0.5107899904251099,4.733584880828857,16.71567726135254,-0.5638216137886047,-0.8589662909507751,52954.0,53467.0,53517.0,46475.0,0.6,0.0,0.5,-0.35959967970848083,0.61481773853302,0.4425758123397827,-0.012409554794430733,0.052256155759096146,0.16892345249652863,1.071577548980713,-1.085468053817749,2.7756083011627197,-2.447097063064575,4.499792098999023,-1.2947312593460083,50602.0,47643.0,49676.0,45766.0,-0.3000025448675481,0.51961377298239,0.5,-0.3643888533115387,-0.5270101428031921,0.4175933599472046,-0.05741412192583084,0.014893809333443642,0.18906651437282562,0.2286655753850937,-0.7333414554595947,1.1857112646102905,-5.319244384765625,3.2639718055725098,-0.5132330656051636,52050.0,49561.0,52635.0,50447.0,-0.29999491024331576,-0.5196181808098181,0.5
2.166,TAKEOFF,abrupt,1.0,0.6302762627601624,0.015979567542672157,0.3731246888637543,0.07026737183332443,0.02874596044421196,0.24337001144886017,-0.07813255488872528,0.5624648928642273,4.69100284576416,13.153921127319336,2.071030616760254,-3.2743887901306152,52322.0,53529.0,53977.0,46851.0,0.6,0.0,0.5,-0.35959967970848083,0.61481773853302,0.4425758123397827,-0.00855992827564478,0.04893887788057327,0.1624540239572525,0.99415522813797,-1.1303794384002686,2.727774143218994,2.423858165740967,-6.194939613342285,-1.3030500411987305,50622.0,47972.0,49767.0,45524.0,-0.3000025448675481,0.51961377298239,0.5,-0.3675798773765564,-0.5246091485023499,0.43834397196769714,-0.05490351468324661,0.014275769703090191,0.18103966116905212,0.11680855602025986,-0.8109046816825867,1.1780582666397095,-7.968799591064453,-2.557749032974243,-0.3183867931365967,52050.0,49561.0,52635.0,50447.0,-0.29999491024331576,-0.5196181808098181,0.5
2.186,TAKEOFF,abrupt,1.0,0.6302762627601624,0.015979567542672157,0.3731246888637543,0.06849520653486252,0.0289981160312891,0.2317967712879181,0.2726762592792511,0.5862889289855957,4.609245777130127,12.282983779907227,-1.0021556615829468,-0.7074956297874451,52043.0,54297.0,54306.0,44315.0,0.6,0.0,0.5,-0.35959967970848083,0.61481773853302,0.4425758123397827,-0.004564656876027584,0.045801956206560135,0.1557222455739975,1.0445671081542969,-1.0038957595825195,2.695932388305664,5.270692825317383,-7.82481050491333,-1.666152000427246,51178.0,49071.0,49200.0,44340.0,-0.3000025448675481,0.51961377298239,0.5,-0.3675798773765564,-0.5246091485023499,0.43834397196769714,-0.05221253260970116,0.014068040065467358,0.17553797364234924,-0.0429752953350544,-0.7681196928024292,1.1708325147628784,-6.979572296142578,-5.150613784790039,-0.255971223115921,51291.0,50009.0,53420.0,50034.0,-0.29999491024331576,-0.5196181808098181,0.5
2.206,TAKEOFF,abrupt,1.0,0.6384559273719788,0.017295215278863907,0.40274906158447266,0.07139184325933456,0.024990975856781006,0.2425457388162613,0.40366417169570923,0.7308831214904785,4.613458633422852,3.011180877685547,-5.787827014923096,-1.5461333990097046,51915.0,53128.0,54004.0,46217.0,0.6,0.0,0.5,-0.36043649911880493,0.619725227355957,0.4588712751865387,-0.0007548132562078536,0.04267582297325134,0.1488451361656189,1.1662641763687134,-0.825677216053009,2.6661806106567383,6.7282304763793945,-9.377399444580078,-0.9825284481048584,50732.0,48876.0,49835.0,44556.0,-0.3000025448675481,0.51961377298239,0.5,-0.3675798773765564,-0.5246091485023499,0.43834397196769714,-0.048639122396707535,0.01469410676509142,0.16763310134410858,-0.17130373418331146,-0.6654112935066223,1.1650899648666382,-3.063509941101074,-5.953258037567139,-0.25011709332466125,51291.0,50009.0,53420.0,50034.0,-0.29999491024331576,-0.5196181808098181,0.5
2.226,TAKEOFF,abrupt,1.0,0.6384559273719788,0.017295215278863907,0.40274906158447266,0.07029779255390167,0.01858225278556347,0.24691163003444672,0.47832953929901123,0.912301778793335,4.527233123779297,4.727615833282471,-4.970673084259033,-1.331809401512146,52189.0,52956.0,53593.0,46182.0,0.6,0.0,0.5,-0.36043649911880493,0.619725227355957,0.4588712751865387,0.002641755621880293,0.039238862693309784,0.14451755583286285,1.3032037019729614,-0.6386760473251343,2.6407649517059326,9.285831451416016,-6.382761478424072,-1.836877465248108,51511.0,48914.0,48955.0,44663.0,-0.3000025448675481,0.51961377298239,0.5,-0.3675798773765564,-0.5246091485023499,0.43834397196769714,-0.048351556062698364,0.020521963015198708,0.1622297167778015,-0.1936493217945099,-0.526413083076477,1.1745976209640503,8.05176067352295,-2.3038525581359863,1.3323966264724731,52579.0,50875.0,52454.0,49092.0,-0.29999491024331576,-0.5196181808098181,0.5
2.246,TAKEOFF,abrupt,1.0,0.6384559273719788,0.017295215278863907,0.40274906158447266,0.06674214452505112,0.013737857341766357,0.24633021652698517,0.513987123966217,1.0411955118179321,4.485966205596924,-3.880117177963257,-4.933773040771484,-1.3846311569213867,53379.0,53801.0,52508.0,44972.0,0.6,0.0,0.5,-0.36043649911880493,0.619725227355957,0.4588712751865387,0.005425577983260155,0.03537597879767418,0.13900786638259888,1.6147477626800537,-0.5485253930091858,2.5960609912872314,3.6256682872772217,-5.740471363067627,-1.310110092163086,51750.0,50080.0,49029.0,43616.0,-0.3000025448675481,0.51961377298239,0.5,-0.3675798773765564,-0.5246091485023499,0.43834397196769714,-0.046618908643722534,0.02127649076282978,0.15544003248214722,-0.1936493217945099,-0.526413083076477,1.1745976209640503,8.05176067352295,-2.3038525581359863,1.3323966264724731,53485.0,50125.0,51655.0,49843.0,-0.29999491024331576,-0.5196181808098181,0.5
2.266,TAKEOFF,abrupt,1.0,0.6384559273719788,0.017295215278863907,0.40274906158447266,0.06365141272544861,0.01180641446262598,0.2354632467031479,0.43628424406051636,1.195805549621582,4.427576065063477,-9.654508590698242,-3.6157164573669434,-2.2003676891326904,52804.0,53175.0,53423.0,45352.0,0.6,0.0,0.5,-0.36043649911880493,0.619725227355957,0.4588712751865387,0.02007322944700718,0.016228700056672096,0.11906567215919495,1.6593509912490845,-0.3904271721839905,2.612647533416748,1.3049699068069458,-2.504434823989868,-2.1249895095825195,51319.0,48215.0,49503.0,45696.0,-0.3000025448675481,0.51961377298239,0.5,-0.3726996183395386,-0.5222436785697937,0.4553224444389343,-0.04492949694395065,0.021584324538707733,0.14922311902046204,-0.03428603708744049,-0.5174660682678223,1.1934535503387451,10.664941787719727,4.387516975402832,1.317500114440918,53440.0,49431.0,52030.0,50418.0,-0.29999491024331576,-0.5196181808098181,0.5
2.286,TAKEOFF,abrupt,1.0,0.6384559273719788,0.017295215278863907,0.40274906158447266,0.05725265294313431,0.007716136518865824,0.22768528759479523,0.3025526702404022,1.2784136533737183,4.38601016998291,-8.767799377441406,2.7346065044403076,-0.9711375832557678,52316.0,52705.0,53975.0,46234.0,0.6,0.0,0.5,-0.36043649911880493,0.619725227355957,0.4588712751865387,0.02007322944700718,0.016228700056672096,0.11906567215919495,1.5228760242462158,-0.4153148829936981,2.5828030109405518,-11.875935554504395,-0.2099122256040573,-0.7166929841041565,51701.0,49065.0,48992.0,45251.0,-0.3000025448675481,0.51961377298239,0.5,-0.3726996183395386,-0.5222436785697937,0.4553224444389343,-0.04297986999154091,0.021268878132104874,0.14103978872299194,0.16467757523059845,-0.6251442432403564,1.2218223810195923,8.497518539428711,7.425063133239746,3.062861919403076,53683.0,50272.0,51923.0,49702.0,-0.29999491024331576,-0.5196181808098181,0.5
2.306,TAKEOFF,abrupt,1.0,0.636354386806488,0.013565389439463615,0.4242924451828003,0.04592962563037872,0.014173251576721668,0.20602425932884216,0.09144624322652817,1.3493432998657227,4.451580047607422,-7.395860195159912,4.492833137512207,-3.855405330657959,54464.0,52124.0,52146.0,47435.0,0.6,0.0,0.5,-0.35657137632369995,0.6212129592895508,0.4694468080997467,0.02326117642223835,0.01623438484966755,0.10650326311588287,1.3388948440551758,-0.4227178394794464,2.579921245574951,-10.144804954528809,1.1167352199554443,-1.3688980340957642,50871.0,48519.0,50161.0,45851.0,-0.3000025448675481,0.51961377298239,0.5,-0.3726996183395386,-0.5222436785697937,0.4553224444389343,-0.040618348866701126,0.020345311611890793,0.1331380307674408,0.4743090569972992,-0.857997715473175,1.3455405235290527,2.263066530227661,4.437353610992432,3.6829185485839844,53543.0,49846.0,52312.0,50090.0,-0.29999491024331576,-0.5196181808098181,0.5
2.326,TAKEOFF,abrupt,1.0,0.636354386806488,0.013565389439463615,0.4242924451828003,0.02076808549463749,-0.009572552517056465,0.19313989579677582,0.22469386458396912,1.342250943183899,4.316694736480713,-4.902398109436035,7.825523853302002,-1.7238929271697998,53703.0,53576.0,52957.0,45579.0,0.6,0.0,0.5,-0.35657137632369995,0.6212129592895508,0.4694468080997467,0.02504141256213188,0.013157465495169163,0.09866777062416077,1.128758192062378,-0.44256457686424255,2.529686212539673,-8.823244094848633,-2.068028688430786,-4.597367763519287,50108.0,46595.0,51098.0,47976.0,-0.3000025448675481,0.51961377298239,0.5,-0.3726996183395386,-0.5222436785697937,0.4553224444389343,-0.03926166519522667,0.01968768984079361,0.1300017535686493,0.4743090569972992,-0.857997715473175,1.3455405235290527,2.263066530227661,4.437353610992432,3.6829185485839844,53958.0,49702.0,52155.0,50100.0,-0.29999491024331576,-0.5196181808098181,0.5
2.346,TAKEOFF,abrupt,1.0,0.636354386806488,0.013565389439463615,0.4242924451828003,0.01496531255543232,-0.013536033220589161,0.19166818261146545,0.17098906636238098,1.1950689554214478,4.31463098526001,2.3041326999664307,8.43999195098877,0.6565939784049988,54203.0,52552.0,52439.0,47058.0,0.6,0.0,0.5,-0.35657137632369995,0.6212129592895508,0.4694468080997467,0.02504141256213188,0.013157465495169163,0.09866777062416077,0.9087914228439331,-0.4159170687198639,2.426250696182251,-8.618332862854004,-1.1367543935775757,-1.5468248128890991,51014.0,47714.0,50290.0,47167.0,-0.3000025448675481,0.51961377298239,0.5,-0.3767191469669342,-0.5202570557594299,0.4687584936618805,-0.03630572557449341,0.01812874525785446,0.124163419008255,0.5067529678344727,-0.9320271611213684,1.424756646156311,-0.8107794523239136,2.4806060791015625,5.023464202880859,52881.0,49693.0,53284.0,50227.0,-0.29999491024331576,-0.5196181808098181,0.5
2.366,TAKEOFF,abrupt,1.0,0.636354386806488,0.013565389439463615,0.4242924451828003,0.009565578773617744,-0.009734104387462139,0.18354254961013794,0.13757506012916565,0.9910308122634888,4.346095561981201,7.423861980438232,19.600109100341797,-1.4408048391342163,53149.0,51741.0,53729.0,48097.0,0.6,0.0,0.5,-0.35657137632369995,0.6212129592895508,0.4694468080997467,0.027141794562339783,0.009317105636000633,0.09141600877046585,0.766163170337677,-0.3518731892108917,2.429682731628418,-1.5702136754989624,-4.452775478363037,-3.387601613998413,51324.0,48098.0,49956.0,46918.0,-0.3000025448675481,0.51961377298239,0.5,-0.3767191469669342,-0.5202570557594299,0.4687584936618805,-0.03311812877655029,0.01654953323304653,0.11933138966560364,0.4688076674938202,-0.9509210586547852,1.520560383796692,-1.159112811088562,-1.6895478963851929,4.011192321777344,53531.0,49846.0,52658.0,50179.0,-0.29999491024331576,-0.5196181808098181,0.5
2.386,TAKEOFF,abrupt,1.0,0.636354386806488,0.013565389439463615,0.4242924451828003,0.0061863563023507595,-0.010417347773909569,0.17001616954803467,0.16945907473564148,0.608775794506073,4.324503421783447,-6.250392436981201,9.813310623168945,-1.956973671913147,53857.0,53534.0,52924.0,46112.0,0.6,0.0,0.5,-0.35657137632369995,0.6212129592895508,0.4694468080997467,0.028508976101875305,0.007094336207956076,0.09332484006881714,0.866244912147522,-0.29883259534835815,2.3508031368255615,1.7050358057022095,-5.818606853485107,-1.6556618213653564,51579.0,49895.0,49609.0,44667.0,-0.3000025448675481,0.51961377298239,0.5,-0.3767191469669342,-0.5202570557594299,0.4687584936618805,-0.02991732582449913,0.01508447527885437,0.1146090179681778,0.4849138855934143,-0.9004322290420532,1.6473180055618286,0.48386314511299133,-4.271821975708008,4.2118425369262695,53551.0,51216.0,53032.0,50038.0,-0.29999491024331576,-0.5196181808098181,0.5
2.406,TAKEOFF,abrupt,1.0,0.6402668952941895,0.015505927614867687,0.44462642073631287,0.006335704121738672,-0.0053797196596860886,0.1672055870294571,-0.059530943632125854,0.4163230359554291,4.341898441314697,-10.68387222290039,13.153314590454102,1.6029149293899536,52467.0,52238.0,54521.0,47582.0,0.6,0.0,0.5,-0.35039928555488586,0.6188031435012817,0.4778901934623718,0.0366634801030159,-0.009526166133582592,0.09463810175657272,0.867201030254364,-0.08199138939380646,2.3183934688568115,10.613401412963867,-7.413172721862793,-3.5187571048736572,52452.0,50287.0,48237.0,44323.0,-0.3000025448675481,0.51961377298239,0.5,-0.3767191469669342,-0.5202570557594299,0.4687584936618805,-0.009105135686695576,0.006471595261245966,0.09566269814968109,0.4849138855934143,-0.9004322290420532,1.6473180055618286,0.48386314511299133,-4.271821975708008,4.2118425369262695,53713.0,49866.0,53298.0,50793.0,-0.29999491024331576,-0.5196181808098181,0.5
2.426,TAKEOFF,abrupt,1.0,0.6402668952941895,0.015505927614867687,0.44462642073631287,0.0005782275111414492,-0.00037696128129027784,0.16227327287197113,-0.2940451502799988,0.24614767730236053,4.389863967895508,-4.463020324707031,4.685577392578125,-0.13261692225933075,53944.0,52555.0,53063.0,47299.0,0.6,0.0,0.5,-0.35039928555488586,0.6188031435012817,0.4778901934623718,0.028104020282626152,-0.0037707891315221786,0.09407825022935867,0.9817389845848083,0.09281513839960098,2.2681009769439697,5.992380142211914,-11.993478775024414,-3.0219852924346924,51408.0,49958.0,49862.0,44532.0,-0.3000025448675481,0.51961377298239,0.5,-0.3767191469669342,-0.5202570557594299,0.4687584936618805,-0.005134663078933954,0.004172130022197962,0.0937008410692215,0.5023359060287476,-0.891658365726471,1.7413825988769531,0.6921199560165405,-5.2938690185546875,3.2320644855499268,53518.0,49940.0,53337.0,50741.0,-0.29999491024331576,-0.5196181808098181,0.5
2.446,TAKEOFF,abrupt,1.0,0.6402668952941895,0.015505927614867687,0.44462642073631287,-0.00045664995559491217,0.0003780017723329365,0.15807092189788818,-0.39056891202926636,0.10302889347076416,4.375029563903809,-5.459671497344971,8.362566947937012,-0.27759769558906555,53831.0,53071.0,53405.0,46411.0,0.6,0.0,0.5,-0.35039928555488586,0.6188031435012817,0.4778901934623718,0.03448024392127991,-0.019629565998911858,0.08852822333574295,1.004371166229248,0.31699123978614807,2.2896409034729004,2.1338562965393066,-10.804558753967285,-2.1143991947174072,50996.0,50161.0,50465.0,44277.0,-0.3000025448675481,0.51961377298239,0.5,-0.3767191469669342,-0.5202570557594299,0.4687584936618805,-0.0034004682675004005,0.003917621914297342,0.08998415619134903,0.49056610465049744,-0.74583899974823,1.821100115776062,-0.8702524900436401,-8.223043441772461,2.1477625370025635,53474.0,50843.0,53586.0,49771.0,-0.29999491024331576,-0.5196181808098181,0.5
2.466,TAKEOFF,abrupt,1.0,0.6402668952941895,0.015505927614867687,0.44462642073631287,-0.0010329937795177102,0.0015457251574844122,0.15207763016223907,-0.4021356701850891,-0.20255228877067566,4.3282246589660645,-4.812551498413086,7.101348400115967,-0.4249248802661896,52989.0,51785.0,53049.0,49203.0,0.6,0.0,0.5,-0.35039928555488586,0.6188031435012817,0.4778901934623718,0.03361134231090546,-0.023572446778416634,0.08842578530311584,1.1644929647445679,0.4084375202655792,2.2202939987182617,0.7294009327888489,-8.150477409362793,-1.5686061382293701,50587.0,48597.0,50943.0,45971.0,-0.3000025448675481,0.51961377298239,0.5,-0.3715534508228302,-0.5221466422080994,0.47735968232154846,-0.0015233539743348956,0.0017382869264110923,0.08655301481485367,0.4262824058532715,-0.3558215796947479,1.9073349237442017,-2.8002870082855225,-6.27924108505249,2.8040571212768555,54229.0,50063.0,53678.0,50086.0,-0.29999491024331576,-0.5196181808098181,0.5
2.486,TAKEOFF,abrupt,1.0,0.6402668952941895,0.015505927614867687,0.44462642073631287,0.00929213222116232,-0.017848437651991844,0.14730007946491241,-0.39632928371429443,-0.2070734053850174,4.263661861419678,-4.14047384262085,5.860353469848633,-3.211550712585449,54633.0,53832.0,52431.0,45872.0,0.6,0.0,0.5,-0.35039928555488586,0.6188031435012817,0.4778901934623718,0.03361134231090546,-0.023572446778416634,0.08842578530311584,1.1263337135314941,0.504767119884491,2.205130100250244,-5.069653511047363,-2.5572166442871094,-1.8159263134002686,51802.0,48839.0,49417.0,45947.0,-0.3000025448675481,0.51961377298239,0.5,-0.3715534508228302,-0.5221466422080994,0.47735968232154846,-0.0022375115659087896,0.0018481299048289657,0.078366719186306,0.4262824058532715,-0.3558215796947479,1.9073349237442017,-2.8002870082855225,-6.27924108505249,2.8040571212768555,53961.0,49814.0,54175.0,50302.0,-0.29999491024331576,-0.5196181808098181,0.5
2.506,TAKEOFF,abrupt,1.0,0.6382361054420471,0.015113973058760166,0.46052372455596924,0.00978089775890112,-0.016548043116927147,0.14057794213294983,-0.5046479105949402,-0.2556016743183136,4.2880754470825195,-0.6423363089561462,0.020889652892947197,-2.5985610485076904,52966.0,53445.0,54121.0,46491.0,0.6,0.0,0.5,-0.3465552031993866,0.6166184544563293,0.48697739839553833,0.03224940225481987,-0.02761310338973999,0.08883072435855865,0.8207644820213318,0.6081668138504028,2.2001895904541016,-17.475831985473633,6.07301139831543,-0.437668114900589,50777.0,47778.0,50490.0,46735.0,-0.3000025448675481,0.51961377298239,0.5,-0.3715534508228302,-0.5221466422080994,0.47735968232154846,-0.0016079694032669067,0.0008309186669066548,0.07485708594322205,0.38231271505355835,-0.21974128484725952,1.9626338481903076,-2.265362501144409,-6.946284294128418,3.904386281967163,54280.0,50239.0,54125.0,49858.0,-0.29999491024331576,-0.5196181808098181,0.5
2.526,TAKEOFF,abrupt,1.0,0.6382361054420471,0.015113973058760166,0.46052372455596924,0.005688476376235485,-0.0027082180604338646,0.13777156174182892,-0.5028795599937439,-0.21128980815410614,4.243119239807129,2.6367526054382324,-7.97298526763916,-3.442659378051758,52691.0,53885.0,54581.0,45850.0,0.6,0.0,0.5,-0.3465552031993866,0.6166184544563293,0.48697739839553833,0.02502310648560524,-0.028009196743369102,0.08839109539985657,0.5244132280349731,0.5098481774330139,2.192578077316284,-11.587010383605957,2.017069101333618,-2.642012119293213,51005.0,48666.0,50009.0,46232.0,-0.3000025448675481,0.51961377298239,0.5,-0.3715534508228302,-0.5221466422080994,0.47735968232154846,-0.00021033547818660736,-0.0010976040503010154,0.07025718688964844,0.3364351987838745,-0.13165125250816345,2.0801281929016113,-2.2354788780212402,3.384799003601074,4.112115383148193,55100.0,48872.0,53391.0,51149.0,-0.29999491024331576,-0.5196181808098181,0.5
2.546,TAKEOFF,abrupt,1.0,0.6382361054420471,0.015113973058760166,0.46052372455596924,0.006341883912682533,-0.000972513749729842,0.1316073089838028,-0.5294221043586731,-0.004815567284822464,4.246929168701172,1.2151556015014648,-14.362378120422363,-2.409221887588501,53442.0,52479.0,53922.0,47405.0,0.6,0.0,0.5,-0.3465552031993866,0.6166184544563293,0.48697739839553833,0.01852908544242382,-0.028517315164208412,0.08888664096593857,0.27979955077171326,0.486018568277359,2.1462252140045166,-8.96567153930664,2.163862466812134,-1.0866721868515015,51357.0,49630.0,49708.0,44966.0,-0.3000025448675481,0.51961377298239,0.5,-0.3715534508228302,-0.5221466422080994,0.47735968232154846,0.00091481365961954,-0.0023975290823727846,0.06891493499279022,0.3364351987838745,-0.13165125250816345,2.0801281929016113,-2.2354788780212402,3.384799003601074,4.112115383148193,54641.0,48765.0,53504.0,50813.0,-0.29999491024331576,-0.5196181808098181,0.5
