timestamp_sec,flight_state,fault_type,fault_motor_health,cf1_X,cf1_Y,cf1_Z,cf1_VelX,cf1_VelY,cf1_VelZ,cf1_Roll,cf1_Pitch,cf1_Yaw,cf1_GyroX,cf1_GyroY,cf1_GyroZ,cf1_Motor1,cf1_Motor2,cf1_Motor3,cf1_Motor4,cf1_targ_x,cf1_targ_y,cf1_targ_z,cf2_X,cf2_Y,cf2_Z,cf2_VelX,cf2_VelY,cf2_VelZ,cf2_Roll,cf2_Pitch,cf2_Yaw,cf2_GyroX,cf2_GyroY,cf2_GyroZ,cf2_Motor1,cf2_Motor2,cf2_Motor3,cf2_Motor4,cf2_targ_x,cf2_targ_y,cf2_targ_z,cf3_X,cf3_Y,cf3_Z,cf3_VelX,cf3_VelY,cf3_VelZ,cf3_Roll,cf3_Pitch,cf3_Yaw,cf3_GyroX,cf3_GyroY,cf3_GyroZ,cf3_Motor1,cf3_Motor2,cf3_Motor3,cf3_Motor4,cf3_targ_x,cf3_targ_y,cf3_targ_z
0.004,TAKEOFF,intermittent,1.0,0.588195264339447,0.007473109755665064,-0.0005050790496170521,-0.004284153692424297,-0.029486866667866707,-0.003270125715062022,0.519514799118042,0.2633470296859741,6.938757419586182,0.07154494524002075,-0.05908893421292305,-0.043703146278858185,0.0,0.0,0.0,0.0,0.6,0.0,0.5,-0.46331971883773804,0.5615348219871521,0.004450296517461538,0.0010351717937737703,-0.009111023508012295,-0.004549709148705006,0.3646489977836609,-1.2280653715133667,2.5656559467315674,0.05795854330062866,-0.29878199100494385,-0.04161690175533295,0.0,0.0,0.0,0.0,-0.3000025448675481,0.51961377298239,0.5,-0.43427667021751404,-0.6158462762832642,0.004727641586214304,-0.012202401645481586,0.01248183473944664,-0.006238388828933239,0.3998207449913025,-0.06178848072886467,-2.3098719120025635,0.0630086287856102,0.11995405703783035,0.01184037420898676,0.0,0.0,0.0,0.0,-0.29999491024331576,-0.5196181808098181,0.5
0.014,TAKEOFF,intermittent,1.0,0.5893927216529846,0.0065383268520236015,-0.00039028117316775024,0.022523371502757072,-0.0023972552735358477,-0.006094004027545452,0.3325921595096588,-0.0149276964366436,7.069077014923096,0.1120663583278656,0.17495086789131165,0.05771984905004501,0.0,0.0,0.0,0.0,0.29535872712806976,0.522267385837261,0.5,-0.4609602987766266,0.5611844062805176,0.003735834499821067,0.022259952500462532,-0.02054842934012413,-0.0069052111357450485,0.498916357755661,-1.4215805530548096,2.653738498687744,-0.050223760306835175,0.028720421716570854,-0.10642808675765991,0.0,0.0,0.0,0.0,-0.5999589616478842,-0.007017431039392062,0.5,-0.43058428168296814,-0.5557694435119629,0.5639300346374512,7.078134512994438e-05,0.005176933947950602,-0.003283492289483547,0.44008868932724,-0.16233600676059723,-2.28092360496521,-0.10724392533302307,-0.10658610612154007,-0.2208305299282074,0.0,0.0,0.0,0.0,0.3074936719552162,-0.5152161116536418,0.5
0.033,TAKEOFF,intermittent,1.0,0.588195264339447,0.007473109755665064,-0.0005050790496170521,-0.00849002506583929,-0.014117426238954067,-0.0025920593179762363,0.360171377658844,0.2615233063697815,6.92677640914917,-0.04851583391427994,0.03913739323616028,-0.017685886472463608,0.0,0.0,0.0,0.0,0.6,0.0,0.5,-0.462418794631958,0.5628516674041748,0.0050717564299702644,-0.024867746978998184,0.020632650703191757,0.002927897498011589,0.23872411251068115,-1.1224308013916016,2.578464984893799,-0.2144448310136795,-0.22094638645648956,0.04823043569922447,0.0,0.0,0.0,0.0,-0.3000025448675481,0.51961377298239,0.5,-0.43427667021751404,-0.6158462762832642,0.004727641586214304,0.01538971159607172,-0.006234987638890743,-0.0021089822985231876,0.5517833828926086,-0.2938658893108368,-2.296966075897217,-0.06568899750709534,0.34230566024780273,0.11809751391410828,0.0,0.0,0.0,0.0,-0.29999491024331576,-0.5196181808098181,0.5
0.054,TAKEOFF,intermittent,1.0,0.588195264339447,0.007473109755665064,-0.0005050790496170521,0.010535446926951408,-0.018288591876626015,-0.006197535898536444,0.35947805643081665,0.2622101306915283,6.925558090209961,0.12413724511861801,-0.012502575293183327,-0.03544805571436882,0.0,0.0,0.0,0.0,0.6,0.0,0.5,-0.462418794631958,0.5628516674041748,0.0050717564299702644,-0.02637450210750103,0.015190742909908295,0.00524130230769515,0.20475126802921295,-1.0650599002838135,2.626677989959717,0.08491519838571548,0.14488939940929413,0.07386629283428192,0.0,0.0,0.0,0.0,-0.3000025448675481,0.51961377298239,0.5,-0.43427667021751404,-0.6158462762832642,0.004727641586214304,-0.00237414357252419,0.011222357861697674,-0.0071105374954640865,0.4192911386489868,-0.14838887751102448,-2.2963671684265137,-0.032966457307338715,0.06040762737393379,-0.06690878421068192,0.0,0.0,0.0,0.0,-0.29999491024331576,-0.5196181808098181,0.5
0.073,TAKEOFF,intermittent,1.0,0.592697024345398,0.006824912503361702,-0.001419381471350789,0.015552320517599583,-0.018925519660115242,-0.007840638980269432,0.4081251919269562,0.11384246498346329,6.86088228225708,-0.017656125128269196,0.20126494765281677,-0.046344999223947525,0.0,0.0,0.0,0.0,0.6,0.0,0.5,-0.462418794631958,0.5628516674041748,0.0050717564299702644,-0.027074120938777924,0.01576847769320011,0.00506266625598073,0.2037625014781952,-1.063881516456604,2.628331184387207,0.010197080671787262,-0.08851823955774307,0.13929332792758942,0.0,0.0,0.0,0.0,-0.3000025448675481,0.51961377298239,0.5,-0.43244796991348267,-0.6159011125564575,0.0039758700877428055,-0.0025744023732841015,0.011532059870660305,-0.007769095245748758,0.41861945390701294,-0.150135338306427,-2.298065423965454,-0.17215892672538757,0.1543908417224884,0.003935857675969601,0.0,0.0,0.0,0.0,-0.29999491024331576,-0.5196181808098181,0.5
0.093,TAKEOFF,intermittent,1.0,0.592697024345398,0.006824912503361702,-0.001419381471350789,0.01587909646332264,-0.01939782314002514,-0.008041405119001865,0.41687220335006714,0.07315532863140106,6.813066482543945,-0.09778624773025513,-0.11139330267906189,-0.18038687109947205,0.0,0.0,0.0,0.0,0.6,0.0,0.5,-0.4647502899169922,0.5644330978393555,0.005382509436458349,-0.02801150642335415,0.01619817689061165,0.005000728648155928,0.20395858585834503,-1.0644158124923706,2.628680467605591,0.09858730435371399,-0.12915422022342682,-0.2375258207321167,0.0,0.0,0.0,0.0,-0.3000025448675481,0.51961377298239,0.5,-0.43244796991348267,-0.6159011125564575,0.0039758700877428055,-0.007421950343996286,0.014696293510496616,-0.009472898207604885,0.39345216751098633,-0.1113625317811966,-2.2958343029022217,-0.12391789257526398,-0.37084129452705383,-0.034353107213974,0.0,0.0,0.0,0.0,-0.29999491024331576,-0.5196181808098181,0.5
0.114,TAKEOFF,intermittent,1.0,0.592697024345398,0.006824912503361702,-0.001419381471350789,0.016465289518237114,-0.019894644618034363,-0.008293190971016884,0.41346076130867004,0.07276149839162827,6.813056945800781,0.19473914802074432,-0.17705050110816956,-0.1398179680109024,0.0,0.0,0.0,0.0,0.6,0.0,0.5,-0.4647502899169922,0.5644330978393555,0.005382509436458349,0.002711860928684473,-0.008113732561469078,-0.009326459839940071,0.40692251920700073,-1.2862935066223145,2.5841355323791504,0.26747605204582214,-0.19002605974674225,-0.06274791806936264,0.0,0.0,0.0,0.0,-0.3000025448675481,0.51961377298239,0.5,-0.43244796991348267,-0.6159011125564575,0.0039758700877428055,-0.007906545884907246,0.014810183085501194,-0.009793709963560104,0.3933972716331482,-0.11048734933137894,-2.295483350753784,0.09736048430204391,0.02465791627764702,-0.15130795538425446,0.0,0.0,0.0,0.0,-0.29999491024331576,-0.5196181808098181,0.5
0.134,TAKEOFF,intermittent,1.0,0.592697024345398,0.006824912503361702,-0.001419381471350789,0.017152879387140274,-0.02050146274268627,-0.008208499290049076,0.41498637199401855,0.07490123063325882,6.8130388259887695,0.060436904430389404,0.06889436393976212,0.1755191683769226,0.0,0.0,0.0,0.0,0.6,0.0,0.5,-0.4647502899169922,0.5644330978393555,0.005382509436458349,-0.014653589576482773,0.0020089633762836456,-0.0010436178417876363,0.3216148018836975,-1.1594021320343018,2.6448028087615967,0.12349885702133179,0.043880440294742584,-0.09070383012294769,0.0,0.0,0.0,0.0,-0.3000025448675481,0.51961377298239,0.5,-0.43244796991348267,-0.6159011125564575,0.0039758700877428055,-0.012054411694407463,0.00848325528204441,-0.005836042575538158,0.45003053545951843,-0.08502062410116196,-2.3227767944335938,-0.06658736616373062,-0.22840751707553864,-0.25715845823287964,0.0,0.0,0.0,0.0,-0.29999491024331576,-0.5196181808098181,0.5
0.153,TAKEOFF,intermittent,1.0,0.592697024345398,0.006824912503361702,-0.001419381471350789,-0.003839961951598525,0.018110953271389008,-0.004885049536824226,0.10303296893835068,0.20721864700317383,6.885730266571045,0.2540798485279083,0.1422489881515503,-0.04191567003726959,0.0,0.0,0.0,0.0,0.6,0.0,0.5,-0.4647502899169922,0.5644330978393555,0.005382509436458349,-0.015084014274179935,0.0018602373311296105,-0.001008315128274262,0.322356253862381,-1.161152958869934,2.6437199115753174,0.08259661495685577,-0.14359861612319946,-0.16045396029949188,0.0,0.0,0.0,0.0,-0.3000025448675481,0.51961377298239,0.5,-0.43244796991348267,-0.6159011125564575,0.0039758700877428055,-0.012218931689858437,0.009170406498014927,-0.004281983245164156,0.449974924325943,-0.08561357110738754,-2.3256964683532715,-0.04758257418870926,0.06735819578170776,-0.008654621429741383,0.0,0.0,0.0,0.0,-0.29999491024331576,-0.5196181808098181,0.5
0.175,TAKEOFF,intermittent,1.0,0.5922366380691528,0.011365656740963459,-0.001234163180924952,-0.0038841492496430874,0.018254386261105537,-0.004675797652453184,0.10318551957607269,0.20360900461673737,6.884922981262207,0.02797754295170307,-0.02465803734958172,-0.11853063106536865,0.0,0.0,0.0,0.0,0.6,0.0,0.5,-0.46525150537490845,0.5638088583946228,0.005649821367114782,-0.022789977490901947,0.008869564160704613,0.005438485648483038,0.26602086424827576,-1.1075721979141235,2.6955018043518066,0.011145058088004589,0.20791839063167572,0.22838455438613892,0.0,0.0,0.0,0.0,-0.3000025448675481,0.51961377298239,0.5,-0.43433085083961487,-0.6156001091003418,0.004327030386775732,-0.012144471518695354,0.00833153910934925,-0.004920863080769777,0.4598086178302765,-0.08690106868743896,-2.3474481105804443,-0.06669464707374573,-0.031069904565811157,0.03142710402607918,0.0,0.0,0.0,0.0,-0.29999491024331576,-0.5196181808098181,0.5
0.198,TAKEOFF,intermittent,1.0,0.5922366380691528,0.011365656740963459,-0.001234163180924952,-0.0039036404341459274,0.018707631155848503,-0.004666711203753948,0.10430441796779633,0.20507732033729553,6.884119033813477,-0.18307821452617645,-0.3571029305458069,-0.059688471257686615,0.0,0.0,0.0,0.0,0.6,0.0,0.5,-0.46525150537490845,0.5638088583946228,0.005649821367114782,-0.023433389142155647,0.008983018808066845,0.0054452670738101006,0.2663828432559967,-1.1078517436981201,2.696587085723877,0.1702374815940857,0.2598939538002014,-0.10938689112663269,0.0,0.0,0.0,0.0,-0.3000025448675481,0.51961377298239,0.5,-0.43433085083961487,-0.6156001091003418,0.004327030386775732,-0.012185161001980305,0.008550604805350304,-0.0047210389748215675,0.46091094613075256,-0.08758487552404404,-2.3484623432159424,-0.028572596609592438,0.39928558468818665,-0.2780217230319977,0.0,0.0,0.0,0.0,-0.29999491024331576,-0.5196181808098181,0.5
0.213,TAKEOFF,intermittent,1.0,0.5922366380691528,0.011365656740963459,-0.001234163180924952,-0.01086398959159851,0.027207061648368835,-0.0063460832461714745,0.041921939700841904,0.2501040995121002,6.960569858551025,0.07448705285787582,0.1511508971452713,0.09302432835102081,0.0,0.0,0.0,0.0,0.6,0.0,0.5,-0.46525150537490845,0.5638088583946228,0.005649821367114782,-0.0233559962362051,0.011170956306159496,0.008794141933321953,0.2528016269207001,-1.1141088008880615,2.738950729370117,-0.10641296952962875,-0.20897874236106873,-0.02478824183344841,0.0,0.0,0.0,0.0,-0.3000025448675481,0.51961377298239,0.5,-0.43433085083961487,-0.6156001091003418,0.004327030386775732,-0.011421616189181805,0.009519764222204685,-0.0021931228693574667,0.45399513840675354,-0.10104329138994217,-2.3494949340820312,0.022477606311440468,0.09854473173618317,0.04722493141889572,0.0,0.0,0.0,0.0,-0.29999491024331576,-0.5196181808098181,0.5
0.233,TAKEOFF,intermittent,1.0,0.5922366380691528,0.011365656740963459,-0.001234163180924952,0.01215049996972084,0.017883166670799255,0.004237446468323469,0.042941149324178696,0.24806004762649536,6.96172571182251,0.18125559389591217,0.014564407989382744,0.13889749348163605,0.0,0.0,0.0,0.0,0.6,0.0,0.5,-0.46525150537490845,0.5638088583946228,0.005649821367114782,-0.021677104756236076,0.011337941512465477,0.00954593438655138,0.25141528248786926,-1.128420352935791,2.782809019088745,-0.08344320207834244,-0.26950520277023315,0.04507841914892197,0.0,0.0,0.0,0.0,-0.3000025448675481,0.51961377298239,0.5,-0.43433085083961487,-0.6156001091003418,0.004327030386775732,-0.01070663146674633,0.009973155334591866,-0.0009970210958272219,0.45141834020614624,-0.1111207902431488,-2.3507139682769775,-0.13212506473064423,0.31361159682273865,-0.06565443426370621,0.0,0.0,0.0,0.0,-0.29999491024331576,-0.5196181808098181,0.5
0.253,TAKEOFF,intermittent,1.0,0.5922366380691528,0.011365656740963459,-0.001234163180924952,0.012639621272683144,0.018104497343301773,0.0041929082944989204,0.1501094102859497,0.08046384900808334,6.904402732849121,-0.12759655714035034,0.14467135071754456,0.09311981499195099,0.0,0.0,0.0,0.0,0.6,0.0,0.5,-0.46525150537490845,0.5638088583946228,0.005649821367114782,-0.015919169411063194,0.017361387610435486,-0.0009930046508088708,0.21918144822120667,-1.1787407398223877,2.7972326278686523,-0.07536634802818298,-0.20549407601356506,-0.06698979437351227,0.0,0.0,0.0,0.0,-0.3000025448675481,0.51961377298239,0.5,-0.43433085083961487,-0.6156001091003418,0.004327030386775732,-0.0109670739620924,0.010302542708814144,-0.0011828176211565733,0.45029598474502563,-0.11407402157783508,-2.3517632484436035,0.31222063302993774,-0.04446064308285713,-0.08107053488492966,0.0,0.0,0.0,0.0,-0.29999491024331576,-0.5196181808098181,0.5
0.273,TAKEOFF,intermittent,1.0,0.5937597155570984,0.014098862186074257,-0.0012161610648036003,0.013631247915327549,0.0169469453394413,0.006227998994290829,0.09872519969940186,0.13080589473247528,6.97529935836792,0.16384442150592804,0.16842320561408997,-0.13913121819496155,0.0,0.0,0.0,0.0,0.6,0.0,0.5,-0.4657473564147949,0.5666494369506836,0.004802360665053129,-0.016311820596456528,0.01761036552488804,-0.001071758335456252,0.21919721364974976,-1.1792607307434082,2.796035051345825,0.09712120145559311,-0.19125302135944366,0.08099811524152756,0.0,0.0,0.0,0.0,-0.3000025448675481,0.51961377298239,0.5,-0.43482404947280884,-0.6151759028434753,0.004357469268143177,-0.011431660503149033,0.01067361980676651,-0.0009153333958238363,0.478841096162796,-0.1513889729976654,-2.358503818511963,-0.016227129846811295,-0.057237330824136734,-0.3879029154777527,0.0,0.0,0.0,0.0,-0.29999491024331576,-0.5196181808098181,0.5
0.293,TAKEOFF,intermittent,1.0,0.5937597155570984,0.014098862186074257,-0.0012161610648036003,0.009265839122235775,0.020926952362060547,-6.767768354620785e-05,0.13449323177337646,0.1089363843202591,6.973008632659912,0.10651324689388275,0.0037709386087954044,0.007417689077556133,0.0,0.0,0.0,0.0,0.6,0.0,0.5,-0.4657473564147949,0.5666494369506836,0.004802360665053129,-0.01682243123650551,0.017945799976587296,-0.0011413535103201866,0.22215908765792847,-1.1782878637313843,2.796880006790161,0.22217480838298798,-0.3881560266017914,-0.17051327228546143,0.0,0.0,0.0,0.0,-0.3000025448675481,0.51961377298239,0.5,-0.43482404947280884,-0.6151759028434753,0.004357469268143177,-0.007219516206532717,0.007540527265518904,0.00046524585923179984,0.4791308641433716,-0.15169993042945862,-2.359926700592041,0.004053821787238121,0.1533420979976654,-0.08988309651613235,0.0,0.0,0.0,0.0,-0.29999491024331576,-0.5196181808098181,0.5
0.313,TAKEOFF,intermittent,1.0,0.5937597155570984,0.014098862186074257,-0.0012161610648036003,-0.012181846424937248,-0.0016534541500732303,-0.004448187071830034,0.28517794609069824,0.28794580698013306,6.970091819763184,-0.26331472396850586,0.09972935169935226,-0.0961528941988945,0.0,0.0,0.0,0.0,0.6,0.0,0.5,-0.4657473564147949,0.5666494369506836,0.004802360665053129,-0.013119143433868885,0.015045850537717342,0.00010677779937395826,0.2523247003555298,-1.2103861570358276,2.8463051319122314,0.19909228384494781,0.27859562635421753,0.14618277549743652,0.0,0.0,0.0,0.0,-0.3000025448675481,0.51961377298239,0.5,-0.43482404947280884,-0.6151759028434753,0.004357469268143177,0.012090466916561127,-0.003961348906159401,-0.000519252906087786,0.5708011388778687,-0.3155039846897125,-2.3308379650115967,0.01694577746093273,-0.18301470577716827,0.05897558853030205,0.0,0.0,0.0,0.0,-0.29999491024331576,-0.5196181808098181,0.5
0.333,TAKEOFF,intermittent,1.0,0.5937597155570984,0.014098862186074257,-0.0012161610648036003,-0.013417769223451614,0.001864964491687715,-0.001531827263534069,0.25289249420166016,0.29064080119132996,7.028316497802734,0.13799215853214264,-0.010260459035634995,0.011746968142688274,0.0,0.0,0.0,0.0,0.6,0.0,0.5,-0.4657473564147949,0.5666494369506836,0.004802360665053129,-0.013411873020231724,0.015116207301616669,7.2058493969962e-05,0.25236010551452637,-1.2093076705932617,2.845804452896118,0.0577717088162899,0.09734350442886353,-0.1567133218050003,0.0,0.0,0.0,0.0,-0.3000025448675481,0.51961377298239,0.5,-0.43482404947280884,-0.6151759028434753,0.004357469268143177,0.01300745364278555,-0.004193557426333427,-0.0006283234106376767,0.5684778690338135,-0.3157723546028137,-2.3319623470306396,0.050790853798389435,0.05636119470000267,-0.008666233159601688,0.0,0.0,0.0,0.0,-0.29999491024331576,-0.5196181808098181,0.5
0.353,TAKEOFF,intermittent,1.0,0.5937597155570984,0.014098862186074257,-0.0012161610648036003,-0.01367262750864029,0.0019962075166404247,-0.0017068288289010525,0.254911333322525,0.2894168794155121,7.028631210327148,0.10969346761703491,0.05722501128911972,0.07366953790187836,0.0,0.0,0.0,0.0,0.6,0.0,0.5,-0.4657473564147949,0.5666494369506836,0.004802360665053129,0.009679827839136124,-0.013443239033222198,-0.012081648223102093,0.5075869560241699,-1.4063751697540283,2.7774112224578857,0.1376519650220871,0.1027170941233635,0.01326565071940422,0.0,0.0,0.0,0.0,-0.3000025448675481,0.51961377298239,0.5,-0.43482404947280884,-0.6151759028434753,0.004357469268143177,0.0100524527952075,-0.0073833889327943325,0.003416613442823291,0.539104163646698,-0.22520634531974792,-2.350041151046753,-0.007826068438589573,0.1780851185321808,0.16419613361358643,0.0,0.0,0.0,0.0,-0.29999491024331576,-0.5196181808098181,0.5
0.373,TAKEOFF,intermittent,1.0,0.5874413847923279,0.010450760833919048,-0.000834940408822149,-0.013870962895452976,0.0020475792698562145,-0.0019082685466855764,0.25658440589904785,0.28627973794937134,7.029419422149658,0.18574969470500946,-0.11464488506317139,0.05980702117085457,0.0,0.0,0.0,0.0,0.6,0.0,0.5,-0.4599848687648773,0.5607085824012756,0.003796729724854231,0.01722015254199505,-0.019782869145274162,-0.015549528412520885,0.5604750514030457,-1.466525912284851,2.6819000244140625,-0.05118098855018616,-0.01684858649969101,0.02999047376215458,0.0,0.0,0.0,0.0,-0.3000025448675481,0.51961377298239,0.5,-0.43361803889274597,-0.6162540316581726,0.00454294215887785,0.0023776269517838955,-0.0004118537181057036,0.0009462384041398764,0.540073573589325,-0.22667153179645538,-2.35060977935791,0.047607071697711945,0.12151885032653809,-0.08543482422828674,0.0,0.0,0.0,0.0,-0.29999491024331576,-0.5196181808098181,0.5
0.393,TAKEOFF,intermittent,1.0,0.5874413847923279,0.010450760833919048,-0.000834940408822149,-0.014123589731752872,0.0023050601594150066,-0.0018964012851938605,0.2560502290725708,0.28548750281333923,7.0303778648376465,-0.016570383682847023,-0.054024793207645416,-0.01141213346272707,0.0,0.0,0.0,0.0,0.6,0.0,0.5,-0.4599848687648773,0.5607085824012756,0.003796729724854231,0.017842231318354607,-0.020527968183159828,-0.015633590519428253,0.5609562397003174,-1.4669197797775269,2.6847634315490723,0.11753984540700912,-0.13552911579608917,-0.05974164977669716,0.0,0.0,0.0,0.0,-0.3000025448675481,0.51961377298239,0.5,-0.43361803889274597,-0.6162540316581726,0.00454294215887785,0.002587483264505863,-0.0003726222494151443,0.0010799701558426023,0.5406004190444946,-0.2273295670747757,-2.3511178493499756,0.11433371156454086,0.04008715599775314,-0.051061589270830154,0.0,0.0,0.0,0.0,-0.29999491024331576,-0.5196181808098181,0.5
0.413,TAKEOFF,intermittent,1.0,0.5874413847923279,0.010450760833919048,-0.000834940408822149,0.017869921401143074,-0.00761714531108737,0.0003720663080457598,0.2563982903957367,0.2833297848701477,7.029446125030518,-0.03872086852788925,0.11320612579584122,0.25698742270469666,0.0,0.0,0.0,0.0,0.6,0.0,0.5,-0.4599848687648773,0.5607085824012756,0.003796729724854231,0.0026647404301911592,-0.010973993688821793,-0.006748504936695099,0.4643363654613495,-1.3368297815322876,2.728614568710327,0.11608653515577316,-0.009070227853953838,-0.024370720610022545,0.0,0.0,0.0,0.0,-0.3000025448675481,0.51961377298239,0.5,-0.43361803889274597,-0.6162540316581726,0.00454294215887785,0.00010605710849631578,0.000319343846058473,-0.0005837840726599097,0.5206739902496338,-0.2018989771604538,-2.3724825382232666,-0.10067127645015717,0.030833013355731964,0.051850732415914536,0.0,0.0,0.0,0.0,-0.29999491024331576,-0.5196181808098181,0.5
0.433,TAKEOFF,intermittent,1.0,0.5874413847923279,0.010450760833919048,-0.000834940408822149,0.022049924358725548,0.0027251080609858036,0.005430464632809162,0.2668219208717346,0.05250488966703415,7.030415058135986,0.08648595958948135,0.0815710499882698,0.008068223483860493,0.0,0.0,0.0,0.0,0.6,0.0,0.5,-0.4599848687648773,0.5607085824012756,0.003796729724854231,0.00050656235544011,-0.006448917090892792,-0.004451011773198843,0.4196390211582184,-1.318076252937317,2.753131151199341,0.18599988520145416,-0.29361745715141296,-0.012658845633268356,0.0,0.0,0.0,0.0,-0.3000025448675481,0.51961377298239,0.5,-0.43361803889274597,-0.6162540316581726,0.00454294215887785,0.00010131537419511005,0.0019940335769206285,0.0004837258020415902,0.5193880200386047,-0.20474693179130554,-2.372792959213257,-0.018365032970905304,0.07104526460170746,-0.17997530102729797,0.0,0.0,0.0,0.0,-0.29999491024331576,-0.5196181808098181,0.5
0.453,TAKEOFF,intermittent,1.0,0.5874413847923279,0.010450760833919048,-0.000834940408822149,0.02497994340956211,0.0007567991851828992,0.008006238378584385,0.2998911440372467,-0.015284993685781956,6.944091796875,-0.05629444494843483,0.1044178232550621,0.048376601189374924,0.0,0.0,0.0,0.0,0.6,0.0,0.5,-0.4599848687648773,0.5607085824012756,0.003796729724854231,0.0015311737079173326,-0.005975184962153435,-0.005822840612381697,0.4140340983867645,-1.3242754936218262,2.7216389179229736,-0.0005852498579770327,-0.10717488080263138,-0.003958479501307011,0.0,0.0,0.0,0.0,-0.3000025448675481,0.51961377298239,0.5,-0.43361803889274597,-0.6162540316581726,0.00454294215887785,0.00040905631612986326,0.0028747322503477335,0.000903606996871531,0.5183740258216858,-0.2071649730205536,-2.373800277709961,0.0900600403547287,0.18602731823921204,0.0067427996546030045,0.0,0.0,0.0,0.0,-0.29999491024331576,-0.5196181808098181,0.5
0.473,TAKEOFF,intermittent,1.0,0.5899893641471863,0.007069633342325687,-0.0011319639161229134,0.01516341045498848,-0.01673028990626335,-0.0016506792744621634,0.45598548650741577,0.06483811140060425,6.890176296234131,0.15987572073936462,0.059675540775060654,0.01777110993862152,0.0,0.0,0.0,0.0,0.6,0.0,0.5,-0.46080729365348816,0.5611098408699036,0.0038111929316073656,0.0133470818400383,-0.017804259434342384,-0.008131860755383968,0.5196195244789124,-1.423487663269043,2.6670103073120117,0.008402657695114613,-0.1882409006357193,0.06235774978995323,0.0,0.0,0.0,0.0,-0.3000025448675481,0.51961377298239,0.5,-0.43412065505981445,-0.6156589388847351,0.004674198571592569,0.0006188300321809947,0.003061145544052124,0.00131145678460598,0.5163090229034424,-0.2091495394706726,-2.374251365661621,0.32720947265625,-0.000945939973462373,0.15528219938278198,0.0,0.0,0.0,0.0,-0.29999491024331576,-0.5196181808098181,0.5
0.493,TAKEOFF,intermittent,1.0,0.5899893641471863,0.007069633342325687,-0.0011319639161229134,0.01677072048187256,-0.021041281521320343,-0.0020700942259281874,0.45901942253112793,0.08986233919858932,6.893821716308594,-0.04515358805656433,0.3549982011318207,0.04442793130874634,0.0,0.0,0.0,0.0,0.6,0.0,0.5,-0.46080729365348816,0.5611098408699036,0.0038111929316073656,0.01716938428580761,-0.02040383219718933,-0.007466897368431091,0.5372132062911987,-1.4511419534683228,2.594601631164551,-0.24823133647441864,0.06847477704286575,-0.1299007385969162,0.0,0.0,0.0,0.0,-0.3000025448675481,0.51961377298239,0.5,-0.43412065505981445,-0.6156589388847351,0.004674198571592569,0.014537516050040722,-0.004521975759416819,6.651975854765624e-05,0.5772199034690857,-0.3220548927783966,-2.3683013916015625,-0.13728277385234833,0.13838103413581848,0.12710775434970856,0.0,0.0,0.0,0.0,-0.29999491024331576,-0.5196181808098181,0.5
0.513,TAKEOFF,intermittent,1.0,0.5899893641471863,0.007069633342325687,-0.0011319639161229134,0.019657764583826065,-0.020770834758877754,-0.005922180600464344,0.48275503516197205,0.029979337006807327,6.771852493286133,0.03979803994297981,0.06865604966878891,0.08843745291233063,0.0,0.0,0.0,0.0,0.6,0.0,0.5,-0.46080729365348816,0.5611098408699036,0.0038111929316073656,0.01869148202240467,-0.020967233926057816,-0.005676839035004377,0.5327415466308594,-1.4602386951446533,2.5306482315063477,-0.10777536034584045,0.07389861345291138,-0.17660710215568542,0.0,0.0,0.0,0.0,-0.3000025448675481,0.51961377298239,0.5,-0.43412065505981445,-0.6156589388847351,0.004674198571592569,0.025561947375535965,-0.01440903078764677,0.0041778055019676685,0.6501520872116089,-0.41432175040245056,-2.346550464630127,-0.0181417278945446,0.02025798335671425,-0.13458366692066193,0.0,0.0,0.0,0.0,-0.29999491024331576,-0.5196181808098181,0.5
0.533,TAKEOFF,intermittent,1.0,0.5899893641471863,0.007069633342325687,-0.0011319639161229134,0.020629573613405228,-0.02126520872116089,-0.0056184385903179646,0.48275503516197205,0.029979337006807327,6.771852493286133,0.03979803994297981,0.06865604966878891,0.08843745291233063,0.0,0.0,0.0,0.0,0.6,0.0,0.5,-0.46080729365348816,0.5611098408699036,0.0038111929316073656,0.019104553386569023,-0.021101845428347588,-0.0037592416629195213,0.5274415016174316,-1.457741141319275,2.4789345264434814,0.2478373795747757,0.32043683528900146,0.09784823656082153,0.0,0.0,0.0,0.0,-0.3000025448675481,0.51961377298239,0.5,-0.43412065505981445,-0.6156589388847351,0.004674198571592569,0.026406792923808098,-0.014840587042272091,0.004056350793689489,0.6500786542892456,-0.4172944724559784,-2.3475520610809326,0.11024423688650131,0.0004774417611770332,0.05011420324444771,0.0,0.0,0.0,0.0,-0.29999491024331576,-0.5196181808098181,0.5
0.553,TAKEOFF,intermittent,1.0,0.5899893641471863,0.007069633342325687,-0.0011319639161229134,0.017849886789917946,-0.003142228350043297,-0.0017223497852683067,0.30135226249694824,0.094523586332798,6.860617637634277,0.016398807987570763,-0.15440230071544647,-0.02207323908805847,0.0,0.0,0.0,0.0,0.6,0.0,0.5,-0.46080729365348816,0.5611098408699036,0.0038111929316073656,0.004814167506992817,-0.01337080541998148,-0.002447385573759675,0.4499882459640503,-1.3390997648239136,2.4967312812805176,-0.06402897834777832,0.17862732708454132,0.06883955001831055,0.0,0.0,0.0,0.0,-0.3000025448675481,0.51961377298239,0.5,-0.43412065505981445,-0.6156589388847351,0.004674198571592569,0.027621449902653694,-0.015156744047999382,0.004535313230007887,0.6498419046401978,-0.4187029004096985,-2.3467562198638916,-0.2261522263288498,0.20266225934028625,-0.15972712635993958,0.0,0.0,0.0,0.0,-0.29999491024331576,-0.5196181808098181,0.5
0.573,TAKEOFF,intermittent,1.0,0.5898388624191284,0.006330080796033144,-0.0010751744266599417,0.008161406964063644,-0.011186257936060429,-7.513337186537683e-05,0.3738744854927063,0.13388700783252716,6.797201633453369,0.08488018065690994,0.010766378603875637,-0.07430286705493927,0.0,0.0,0.0,0.0,0.6,0.0,0.5,-0.4616302251815796,0.5617598295211792,0.004423000384122133,0.005630285479128361,-0.011669361963868141,0.0016701249405741692,0.4400888979434967,-1.3462235927581787,2.48789644241333,0.016313832253217697,-0.0430615060031414,0.0752292349934578,0.0,0.0,0.0,0.0,-0.3000025448675481,0.51961377298239,0.5,-0.4285433888435364,-0.6201432347297668,0.007000073790550232,0.021352410316467285,-0.01481679454445839,0.017111074179410934,0.6428804993629456,-0.36891430616378784,-2.372114658355713,-0.11361423879861832,0.1292804628610611,-0.03417317941784859,0.0,0.0,0.0,0.0,-0.29999491024331576,-0.5196181808098181,0.5
0.593,TAKEOFF,intermittent,1.0,0.5898388624191284,0.006330080796033144,-0.0010751744266599417,0.0048006754368543625,-0.01092934887856245,0.002861869754269719,0.3707207143306732,0.16137230396270752,6.808938026428223,0.12024397403001785,-0.11188644170761108,0.05618637800216675,0.0,0.0,0.0,0.0,0.6,0.0,0.5,-0.4616302251815796,0.5617598295211792,0.004423000384122133,0.005772861652076244,-0.01183354388922453,0.0018004627199843526,0.4325112998485565,-1.3466354608535767,2.482912063598633,-0.02980237640440464,0.0010206425795331597,-0.051330629736185074,0.0,0.0,0.0,0.0,-0.3000025448675481,0.51961377298239,0.5,-0.4285433888435364,-0.6201432347297668,0.007000073790550232,0.021979043260216713,-0.0154870031401515,0.01719631999731064,0.6423291563987732,-0.3703753650188446,-2.3707799911499023,-0.034428153187036514,0.04506709799170494,-0.08777561038732529,0.0,0.0,0.0,0.0,-0.29999491024331576,-0.5196181808098181,0.5
0.616,TAKEOFF,intermittent,1.0,0.5898388624191284,0.006330080796033144,-0.0010751744266599417,0.005106143653392792,-0.0075341034680604935,0.004866933915764093,0.36327025294303894,0.17263829708099365,6.818689346313477,0.2857893109321594,0.2549048662185669,0.12237649410963058,0.0,0.0,0.0,0.0,0.6,0.0,0.5,-0.4616302251815796,0.5617598295211792,0.004423000384122133,0.015911364927887917,-0.01842215657234192,-0.00030694459564983845,0.48746973276138306,-1.4131406545639038,2.443603038787842,-0.07231900095939636,0.10275445133447647,-0.055092696100473404,0.0,0.0,0.0,0.0,-0.3000025448675481,0.51961377298239,0.5,-0.4285433888435364,-0.6201432347297668,0.007000073790550232,-0.012460225261747837,0.012596103362739086,0.0010191412875428796,0.4709925949573517,-0.09509595483541489,-2.385880708694458,-0.02137993648648262,0.00916801206767559,-0.004429908934980631,0.0,0.0,0.0,0.0,-0.29999491024331576,-0.5196181808098181,0.5
0.633,TAKEOFF,intermittent,1.0,0.5898388624191284,0.006330080796033144,-0.0010751744266599417,0.005488609429448843,-0.007583015598356724,0.004595993552356958,0.34616050124168396,0.15625210106372833,6.8435821533203125,0.16952891647815704,-0.07393815368413925,0.057765182107686996,0.0,0.0,0.0,0.0,0.6,0.0,0.5,-0.4616302251815796,0.5617598295211792,0.004423000384122133,0.014597884379327297,-0.01819380559027195,0.0055717583745718,0.482850581407547,-1.423831582069397,2.3967061042785645,0.1947299987077713,-0.09172702580690384,0.25856855511665344,0.0,0.0,0.0,0.0,-0.3000025448675481,0.51961377298239,0.5,-0.4285433888435364,-0.6201432347297668,0.007000073790550232,-0.01432921551167965,0.010320127941668034,0.000494921172503382,0.4709925949573517,-0.09509595483541489,-2.385880708694458,-0.02137993648648262,0.00916801206767559,-0.004429908934980631,0.0,0.0,0.0,0.0,-0.29999491024331576,-0.5196181808098181,0.5
0.654,TAKEOFF,intermittent,1.0,0.5898388624191284,0.006330080796033144,-0.0010751744266599417,0.005978425033390522,-0.007992659695446491,0.0045696222223341465,0.34913843870162964,0.1556597799062729,6.84587287902832,-0.0653100535273552,-0.00534674571827054,0.052449703216552734,0.0,0.0,0.0,0.0,0.6,0.0,0.5,-0.4616302251815796,0.5617598295211792,0.004423000384122133,0.015109451487660408,-0.018655408173799515,0.005559157580137253,0.4776158928871155,-1.4071662425994873,2.3902904987335205,0.010594950057566166,0.13327494263648987,0.013529324904084206,0.0,0.0,0.0,0.0,-0.3000025448675481,0.51961377298239,0.5,-0.4285433888435364,-0.6201432347297668,0.007000073790550232,0.0037900886964052916,-0.000831234676297754,0.007192850578576326,0.5421498417854309,-0.22935712337493896,-2.361600875854492,0.010656704194843769,0.05502498894929886,-0.01692849025130272,0.0,0.0,0.0,0.0,-0.29999491024331576,-0.5196181808098181,0.5
0.674,TAKEOFF,intermittent,1.0,0.5874663591384888,0.009162387810647488,0.0002813196333590895,0.0024422898422926664,-0.0009246694389730692,0.007613269612193108,0.2865511476993561,0.17764262855052948,6.9175705909729,-0.12753133475780487,0.07333369553089142,-0.09878786653280258,0.0,0.0,0.0,0.0,0.6,0.0,0.5,-0.4616302251815796,0.5617598295211792,0.004423000384122133,0.015622509643435478,-0.019404198974370956,0.005723939277231693,0.47728797793388367,-1.4080984592437744,2.389893054962158,-0.14597831666469574,-0.1231485903263092,-0.13336119055747986,0.0,0.0,0.0,0.0,-0.3000025448675481,0.51961377298239,0.5,-0.42769762873649597,-0.6209818124771118,0.0075650932267308235,0.010473382659256458,-0.0038169154431670904,0.014330197125673294,0.5682986974716187,-0.29159560799598694,-2.3333427906036377,-0.18220199644565582,0.3089655339717865,0.11816537380218506,0.0,0.0,0.0,0.0,-0.29999491024331576,-0.5196181808098181,0.5
0.694,TAKEOFF,intermittent,1.0,0.5874663591384888,0.009162387810647488,0.0002813196333590895,0.000845238973852247,0.003689683973789215,0.010675732977688313,0.2497660517692566,0.18405239284038544,6.985568523406982,0.2664511501789093,0.12530840933322906,0.15222999453544617,0.0,0.0,0.0,0.0,0.6,0.0,0.5,-0.45853540301322937,0.5587972402572632,0.005220530554652214,-0.01728231832385063,0.005200924817472696,0.009785054251551628,0.27426576614379883,-1.164268970489502,2.4610495567321777,0.09787730872631073,-0.16913741827011108,0.05350509658455849,0.0,0.0,0.0,0.0,-0.3000025448675481,0.51961377298239,0.5,-0.42769762873649597,-0.6209818124771118,0.0075650932267308235,-0.0004441870260052383,0.0038365977816283703,0.006174856796860695,0.5682986974716187,-0.29159560799598694,-2.3333427906036377,-0.18220199644565582,0.3089655339717865,0.11816537380218506,0.0,0.0,0.0,0.0,-0.29999491024331576,-0.5196181808098181,0.5
0.713,TAKEOFF,intermittent,1.0,0.5874663591384888,0.009162387810647488,0.0002813196333590895,0.0008378828060813248,0.0038889090064913034,0.010661236941814423,0.2501121759414673,0.18213436007499695,6.986777305603027,-0.04443208500742912,0.10352689027786255,0.02298031561076641,0.0,0.0,0.0,0.0,0.6,0.0,0.5,-0.45853540301322937,0.5587972402572632,0.005220530554652214,-0.010638236999511719,-0.0025030679535120726,0.0040557472966611385,0.22476443648338318,-1.1146544218063354,2.518756151199341,0.02174794301390648,-0.21630245447158813,0.004280294291675091,0.0,0.0,0.0,0.0,-0.3000025448675481,0.51961377298239,0.5,-0.42769762873649597,-0.6209818124771118,0.0075650932267308235,-7.780172018101439e-05,0.0025246250443160534,0.0018648599507287145,0.5106174945831299,-0.2002643495798111,-2.349193811416626,0.01604865863919258,-0.09173193573951721,-0.04344455897808075,0.0,0.0,0.0,0.0,-0.29999491024331576,-0.5196181808098181,0.5
0.733,TAKEOFF,intermittent,1.0,0.5874663591384888,0.009162387810647488,0.0002813196333590895,0.0005427967407740653,0.0043290588073432446,0.01062217727303505,0.24889837205410004,0.17940522730350494,6.986416339874268,0.027999984100461006,0.18103374540805817,0.05915721133351326,0.0,0.0,0.0,0.0,0.6,0.0,0.5,-0.45853540301322937,0.5587972402572632,0.005220530554652214,-0.01843452639877796,0.0034804975148290396,0.008426286280155182,0.2946649491786957,-1.158850073814392,2.536663293838501,0.04099022224545479,-0.2355038821697235,-0.026745226234197617,0.0,0.0,0.0,0.0,-0.3000025448675481,0.51961377298239,0.5,-0.42769762873649597,-0.6209818124771118,0.0075650932267308235,3.4143933589803055e-05,0.00256796064786613,0.002135366201400757,0.5139573812484741,-0.18632221221923828,-2.3465516567230225,0.04187540337443352,0.07948455959558487,-0.11944510042667389,0.0,0.0,0.0,0.0,-0.29999491024331576,-0.5196181808098181,0.5
0.753,TAKEOFF,intermittent,1.0,0.5874663591384888,0.009162387810647488,0.0002813196333590895,-0.0009078315342776477,-0.005221776198595762,-2.1160383766982704e-05,0.3192206621170044,0.19715578854084015,6.989537239074707,0.13885387778282166,0.09884273260831833,-0.14409860968589783,0.0,0.0,0.0,0.0,0.6,0.0,0.5,-0.45853540301322937,0.5587972402572632,0.005220530554652214,-0.021506980061531067,0.007320888806134462,0.01178329810500145,0.26490649580955505,-1.136096715927124,2.5881168842315674,-0.004448982421308756,-0.012581315822899342,-0.024552857503294945,0.0,0.0,0.0,0.0,-0.3000025448675481,0.51961377298239,0.5,-0.42769762873649597,-0.6209818124771118,0.0075650932267308235,-0.0022209142334759235,0.00408562459051609,0.0006562468479387462,0.5134148597717285,-0.18096907436847687,-2.344179630279541,0.03332625702023506,0.07308261841535568,0.08121007680892944,0.0,0.0,0.0,0.0,-0.29999491024331576,-0.5196181808098181,0.5
0.773,TAKEOFF,intermittent,1.0,0.5870844125747681,0.008646729402244091,-0.00012954244448337704,-0.0008870596648193896,-0.005368140060454607,-0.00035676080733537674,0.3200658857822418,0.1943565458059311,6.989994049072266,0.008645004592835903,-0.049306660890579224,0.2847993075847626,0.0,0.0,0.0,0.0,0.6,0.0,0.5,-0.45853540301322937,0.5587972402572632,0.005220530554652214,-0.012342232279479504,0.002320632804185152,0.0031078553292900324,0.3108958899974823,-1.2062103748321533,2.52418851852417,0.03966609016060829,0.516297459602356,0.1726248562335968,0.0,0.0,0.0,0.0,-0.3000025448675481,0.51961377298239,0.5,-0.43429940938949585,-0.6159157752990723,0.005913315340876579,-0.0030909657943993807,0.00422256626188755,4.6860142902005464e-05,0.5143361687660217,-0.18001310527324677,-2.343644857406616,-0.24475105106830597,-0.0012181794736534357,-0.31841757893562317,0.0,0.0,0.0,0.0,-0.29999491024331576,-0.5196181808098181,0.5
0.793,TAKEOFF,intermittent,1.0,0.5870844125747681,0.008646729402244091,-0.00012954244448337704,-0.0008186491904780269,-0.005732831545174122,-0.00017826825205702335,0.3195280432701111,0.1935568004846573,6.990683078765869,-0.14714954793453217,0.06285884976387024,-0.08043567091226578,0.0,0.0,0.0,0.0,0.6,0.0,0.5,-0.4612688720226288,0.5616384744644165,0.005184493027627468,-0.02160639502108097,0.012043038383126259,0.0034310847986489534,0.24479596316814423,-1.1270039081573486,2.5823171138763428,0.08790920674800873,-0.11841732263565063,0.056393057107925415,0.0,0.0,0.0,0.0,-0.3000025448675481,0.51961377298239,0.5,-0.43429940938949585,-0.6159157752990723,0.005913315340876579,0.010172076523303986,-0.004054396878927946,-0.003036093432456255,0.5691072344779968,-0.2841477394104004,-2.3383824825286865,0.06127864867448807,-0.2795948088169098,-0.17121514678001404,0.0,0.0,0.0,0.0,-0.29999491024331576,-0.5196181808098181,0.5
0.815,TAKEOFF,intermittent,1.0,0.5870844125747681,0.008646729402244091,-0.00012954244448337704,-0.0009767577284947038,-0.005770478863269091,2.6452986276126467e-05,0.3186796009540558,0.19225992262363434,6.991517543792725,0.27183905243873596,0.10157158225774765,-0.006880457047373056,0.0,0.0,0.0,0.0,0.6,0.0,0.5,-0.4612688720226288,0.5616384744644165,0.005184493027627468,-0.020623404532670975,0.012518594972789288,0.0005796736222691834,0.23380613327026367,-1.1428942680358887,2.5636284351348877,-0.0239455197006464,-0.2820342779159546,-0.05885884910821915,0.0,0.0,0.0,0.0,-0.3000025448675481,0.51961377298239,0.5,-0.43429940938949585,-0.6159157752990723,0.005913315340876579,0.00100895541254431,0.0047097718343138695,-0.006505518686026335,0.5068220496177673,-0.2060716152191162,-2.342984914779663,-0.12340319901704788,0.238186776638031,-0.005970540456473827,0.0,0.0,0.0,0.0,-0.29999491024331576,-0.5196181808098181,0.5
0.833,TAKEOFF,intermittent,1.0,0.5870844125747681,0.008646729402244091,-0.00012954244448337704,-0.004116578493267298,0.00463266484439373,0.0069570960476994514,0.23734551668167114,0.20431043207645416,7.0588603019714355,-0.1308395266532898,0.0018056700937449932,0.1667901575565338,0.0,0.0,0.0,0.0,0.6,0.0,0.5,-0.4612688720226288,0.5616384744644165,0.005184493027627468,-0.019203312695026398,0.013083224184811115,-0.0024329815059900284,0.2319638878107071,-1.1530177593231201,2.5473790168762207,0.1627693623304367,-0.19746682047843933,0.15309567749500275,0.0,0.0,0.0,0.0,-0.3000025448675481,0.51961377298239,0.5,-0.43429940938949585,-0.6159157752990723,0.005913315340876579,0.0008565741591155529,0.004657770041376352,-0.00626197038218379,0.5066437125205994,-0.20869286358356476,-2.3411338329315186,0.12521712481975555,-0.08523192256689072,0.04489212483167648,0.0,0.0,0.0,0.0,-0.29999491024331576,-0.5196181808098181,0.5
0.853,TAKEOFF,intermittent,1.0,0.5870844125747681,0.008646729402244091,-0.00012954244448337704,-0.004455692134797573,0.004928953945636749,0.006881399545818567,0.23915159702301025,0.2052503228187561,7.058268070220947,0.12024596333503723,-0.24782538414001465,-0.03998475894331932,0.0,0.0,0.0,0.0,0.6,0.0,0.5,-0.4612688720226288,0.5616384744644165,0.005184493027627468,-0.019441191107034683,0.013574618846178055,-0.0022467586677521467,0.23042093217372894,-1.1660929918289185,2.5300521850585938,-0.082187220454216,-0.25951263308525085,0.20901858806610107,0.0,0.0,0.0,0.0,-0.3000025448675481,0.51961377298239,0.5,-0.43429940938949585,-0.6159157752990723,0.005913315340876579,0.0008518776157870889,0.004755225498229265,-0.006065371911972761,0.50731360912323,-0.2094472199678421,-2.3421599864959717,-0.3161673843860626,0.25199854373931885,-0.05571365728974342,0.0,0.0,0.0,0.0,-0.29999491024331576,-0.5196181808098181,0.5
0.873,TAKEOFF,intermittent,1.0,0.5862905979156494,0.010029845871031284,0.0012674413155764341,-0.0019010885152965784,-0.0009503475739620626,-0.004803330171853304,0.23915159702301025,0.2052503228187561,7.058268070220947,0.12024596333503723,-0.24782538414001465,-0.03998475894331932,0.0,0.0,0.0,0.0,0.6,0.0,0.5,-0.4612688720226288,0.5616384744644165,0.005184493027627468,0.0020663351751863956,-0.006621933076530695,-0.0024137927684932947,0.3892193138599396,-1.3177529573440552,2.4953787326812744,0.050381358712911606,-0.011048530228435993,-0.13161933422088623,0.0,0.0,0.0,0.0,-0.3000025448675481,0.51961377298239,0.5,-0.43268266320228577,-0.616012692451477,0.004511609673500061,0.0008152183145284653,0.0049466900527477264,-0.006087049376219511,0.565130352973938,-0.19430479407310486,-2.3607428073883057,0.19421769678592682,0.14383244514465332,0.08478651195764542,0.0,0.0,0.0,0.0,-0.29999491024331576,-0.5196181808098181,0.5
0.895,TAKEOFF,intermittent,1.0,0.5862905979156494,0.010029845871031284,0.0012674413155764341,-0.0016012436244636774,-0.0008227630751207471,-0.0047416770830750465,0.29039835929870605,0.19205206632614136,7.052705764770508,-0.027227498590946198,0.08987884968519211,0.18989814817905426,0.0,0.0,0.0,0.0,0.6,0.0,0.5,-0.46043869853019714,0.5609000325202942,0.004919505678117275,0.002352371346205473,-0.006208073813468218,-0.0021277505438774824,0.3886266350746155,-1.3183940649032593,2.4961183071136475,-0.3529795706272125,-0.2940664291381836,-0.25677168369293213,0.0,0.0,0.0,0.0,-0.3000025448675481,0.51961377298239,0.5,-0.43268266320228577,-0.616012692451477,0.004511609673500061,-0.0020328613463789225,-0.0031572976149618626,-0.005895290989428759,0.5648783445358276,-0.19572767615318298,-2.3609962463378906,-0.027146054431796074,0.06624861061573029,-0.08471257984638214,0.0,0.0,0.0,0.0,-0.29999491024331576,-0.5196181808098181,0.5
0.913,TAKEOFF,intermittent,1.0,0.5862905979156494,0.010029845871031284,0.0012674413155764341,-0.0004115434130653739,-0.002367572160437703,-0.00838893000036478,0.28893765807151794,0.19058838486671448,7.052913665771484,0.2575026750564575,-0.0798499807715416,0.006755298003554344,0.0,0.0,0.0,0.0,0.6,0.0,0.5,-0.46043869853019714,0.5609000325202942,0.004919505678117275,0.002453128807246685,-0.006123078055679798,-0.0019383277976885438,0.38696587085723877,-1.3149946928024292,2.495333194732666,0.1374003291130066,-0.3133108615875244,-0.12573103606700897,0.0,0.0,0.0,0.0,-0.3000025448675481,0.51961377298239,0.5,-0.43268266320228577,-0.616012692451477,0.004511609673500061,-0.0019659323152154684,-0.0033643438946455717,-0.0057647330686450005,0.5790798664093018,-0.19898539781570435,-2.3787574768066406,0.04161926731467247,0.04343818873167038,0.028342586010694504,0.0,0.0,0.0,0.0,-0.29999491024331576,-0.5196181808098181,0.5
0.933,TAKEOFF,intermittent,1.0,0.5862905979156494,0.010029845871031284,0.0012674413155764341,-0.0004382184415590018,-0.002268568379804492,-0.008537343703210354,0.30693379044532776,0.18481796979904175,7.050078392028809,-0.1909591555595398,0.21253688633441925,0.12204725295305252,0.0,0.0,0.0,0.0,0.6,0.0,0.5,-0.46043869853019714,0.5609000325202942,0.004919505678117275,-0.02324177324771881,0.010010430589318275,0.004908679984509945,0.2545711100101471,-1.1238278150558472,2.5604233741760254,-0.25517886877059937,-0.2747102975845337,-0.1480056792497635,0.0,0.0,0.0,0.0,-0.3000025448675481,0.51961377298239,0.5,-0.43268266320228577,-0.616012692451477,0.004511609673500061,-0.0020252573303878307,-0.005720121320337057,-0.006981577258557081,0.6748265027999878,-0.4572320580482483,-2.3878917694091797,0.010456820018589497,-0.09275146573781967,-0.16894467175006866,0.0,0.0,0.0,0.0,-0.29999491024331576,-0.5196181808098181,0.5
0.955,TAKEOFF,intermittent,1.0,0.5862905979156494,0.010029845871031284,0.0012674413155764341,0.016852853819727898,-0.01617087796330452,-0.0037083907518535852,0.42563876509666443,0.05943414196372032,6.97835636138916,-0.11677622050046921,0.22065332531929016,0.0013701533898711205,0.0,0.0,0.0,0.0,0.6,0.0,0.5,-0.46043869853019714,0.5609000325202942,0.004919505678117275,-0.023799365386366844,0.01017339900135994,0.004900457803159952,0.2537587881088257,-1.1236244440078735,2.5589334964752197,0.07992316037416458,-0.03149979189038277,-0.11355400085449219,0.0,0.0,0.0,0.0,-0.3000025448675481,0.51961377298239,0.5,-0.43268266320228577,-0.616012692451477,0.004511609673500061,0.03353879600763321,-0.02143685147166252,0.01409672386944294,0.6712988018989563,-0.5015092492103577,-2.4039461612701416,0.02220863848924637,-0.030115582048892975,0.036874186247587204,0.0,0.0,0.0,0.0,-0.29999491024331576,-0.5196181808098181,0.5
0.974,TAKEOFF,intermittent,1.0,0.5919401049613953,0.005817466881126165,-0.0004930218565277755,0.017985818907618523,-0.016461465507745743,-0.0036094204988330603,0.42516788840293884,0.05952712148427963,6.978499889373779,0.02616221271455288,0.23990212380886078,0.05815112963318825,0.0,0.0,0.0,0.0,0.6,0.0,0.5,-0.465129017829895,0.5636435747146606,0.005809383932501078,-0.02417858876287937,0.010540389455854893,0.005074729211628437,0.25540241599082947,-1.1224069595336914,2.5573527812957764,0.11817130446434021,-0.027134215459227562,0.07103615254163742,0.0,0.0,0.0,0.0,-0.3000025448675481,0.51961377298239,0.5,-0.4324290454387665,-0.6172964572906494,0.006627731025218964,0.016995707526803017,-0.010005560703575611,0.003676554188132286,0.6116251349449158,-0.36143532395362854,-2.4093613624572754,-0.02976291999220848,-0.09966293722391129,-0.14835873246192932,0.0,0.0,0.0,0.0,-0.29999491024331576,-0.5196181808098181,0.5
0.993,TAKEOFF,intermittent,1.0,0.5919401049613953,0.005817466881126165,-0.0004930218565277755,0.01887454465031624,-0.01682770438492298,-0.0034000128507614136,0.4097873568534851,0.025244280695915222,6.901291847229004,0.14414705336093903,0.07164803892374039,-0.03503117337822914,0.0,0.0,0.0,0.0,0.6,0.0,0.5,-0.465129017829895,0.5636435747146606,0.005809383932501078,-0.02486236020922661,0.010882745496928692,0.004927348345518112,0.25733494758605957,-1.1220182180404663,2.557983875274658,0.06494152545928955,-0.048477653414011,0.02670690044760704,0.0,0.0,0.0,0.0,-0.3000025448675481,0.51961377298239,0.5,-0.4324290454387665,-0.6172964572906494,0.006627731025218964,0.015374612994492054,-0.00764418812468648,-0.00020052703621331602,0.5783979892730713,-0.30820736289024353,-2.4137766361236572,0.18555039167404175,0.17756696045398712,-0.14186930656433105,0.0,0.0,0.0,0.0,-0.29999491024331576,-0.5196181808098181,0.5
1.013,TAKEOFF,intermittent,1.0,0.5919401049613953,0.005817466881126165,-0.0004930218565277755,0.011660013347864151,-0.018459316343069077,-0.0011084165889769793,0.4097873568534851,0.025244280695915222,6.901291847229004,0.14414705336093903,0.07164803892374039,-0.03503117337822914,0.0,0.0,0.0,0.0,0.6,0.0,0.5,-0.465129017829895,0.5636435747146606,0.005809383932501078,-0.025710755959153175,0.011208677664399147,0.00477710971608758,0.25757572054862976,-1.1211155652999878,2.557377338409424,0.06237005814909935,-0.2017369419336319,0.08372650295495987,0.0,0.0,0.0,0.0,-0.3000025448675481,0.51961377298239,0.5,-0.4324290454387665,-0.6172964572906494,0.006627731025218964,0.015871120616793633,-0.008715270087122917,-0.0026348817627876997,0.5838696360588074,-0.31046149134635925,-2.430478096008301,0.05720918998122215,0.09477004408836365,0.06286614388227463,0.0,0.0,0.0,0.0,-0.29999491024331576,-0.5196181808098181,0.5
1.033,TAKEOFF,intermittent,1.0,0.5919401049613953,0.005817466881126165,-0.0004930218565277755,0.013751893304288387,-0.019136520102620125,-0.0071219936944544315,0.42435789108276367,0.10297925025224686,6.842351913452148,-0.153715580701828,0.09548133611679077,-0.15319934487342834,0.0,0.0,0.0,0.0,0.6,0.0,0.5,-0.465129017829895,0.5636435747146606,0.005809383932501078,-0.02641814760863781,0.011418218724429607,0.004962063394486904,0.2561857998371124,-1.1207374334335327,2.5556399822235107,-0.06674754619598389,0.17411963641643524,-0.12706021964550018,0.0,0.0,0.0,0.0,-0.3000025448675481,0.51961377298239,0.5,-0.4324290454387665,-0.6172964572906494,0.006627731025218964,0.016412463039159775,-0.0089357765391469,-0.0026662906166166067,0.6416318416595459,-0.4032635986804962,-2.4104163646698,-0.056043706834316254,-0.20583751797676086,-0.24870991706848145,0.0,0.0,0.0,0.0,-0.29999491024331576,-0.5196181808098181,0.5
1.053,TAKEOFF,intermittent,1.0,0.5919401049613953,0.005817466881126165,-0.0004930218565277755,0.014123920351266861,-0.01952623575925827,-0.007251928560435772,0.4219343066215515,0.10287149250507355,6.841584205627441,0.1360054910182953,0.13322852551937103,-0.006204506382346153,0.0,0.0,0.0,0.0,0.6,0.0,0.5,-0.465129017829895,0.5636435747146606,0.005809383932501078,0.011562027037143707,-0.010214040987193584,-0.00497965095564723,0.44028332829475403,-1.399757742881775,2.490513324737549,0.09921937435865402,-0.2861992120742798,-0.03591769561171532,0.0,0.0,0.0,0.0,-0.3000025448675481,0.51961377298239,0.5,-0.4324290454387665,-0.6172964572906494,0.006627731025218964,0.02859257534146309,-0.017509346827864647,0.0040943557396531105,0.6639730334281921,-0.44290944933891296,-2.411576509475708,0.05066515877842903,-0.08256366103887558,-0.09718532860279083,0.0,0.0,0.0,0.0,-0.29999491024331576,-0.5196181808098181,0.5
1.073,TAKEOFF,intermittent,1.0,0.5914779305458069,0.00805280078202486,-0.0012098787119612098,0.009443419985473156,-0.00028077527531422675,-0.005323053803294897,0.24741052091121674,0.12639977037906647,6.872618675231934,-0.20294348895549774,0.03219696506857872,0.09458688646554947,0.0,0.0,0.0,0.0,0.6,0.0,0.5,-0.46032434701919556,0.5606998801231384,0.0048858593218028545,0.011392471380531788,-0.009613941423594952,-0.00039061610004864633,0.434657484292984,-1.3952990770339966,2.470496416091919,-0.10451214015483856,0.10847850888967514,0.1590072512626648,0.0,0.0,0.0,0.0,-0.3000025448675481,0.51961377298239,0.5,-0.42688173055648804,-0.6217915415763855,0.007131015416234732,0.034014664590358734,-0.021248547360301018,0.004559528548270464,0.6629619002342224,-0.4413191080093384,-2.4112746715545654,-0.03516324609518051,-0.01532931998372078,-0.22025150060653687,0.0,0.0,0.0,0.0,-0.29999491024331576,-0.5196181808098181,0.5
1.093,TAKEOFF,intermittent,1.0,0.5914779305458069,0.00805280078202486,-0.0012098787119612098,0.01094945427030325,0.008134878240525723,-0.0040059215389192104,0.17321202158927917,0.11084253340959549,6.899352550506592,0.1312183141708374,0.04759315401315689,-0.08125042915344238,0.0,0.0,0.0,0.0,0.6,0.0,0.5,-0.46032434701919556,0.5606998801231384,0.0048858593218028545,-0.005246697925031185,0.005305346101522446,-0.0006457739509642124,0.3036442995071411,-1.2686847448349,2.5469768047332764,-0.17656543850898743,0.03557721897959709,-0.08832340687513351,0.0,0.0,0.0,0.0,-0.3000025448675481,0.51961377298239,0.5,-0.42688173055648804,-0.6217915415763855,0.007131015416234732,0.03463636338710785,-0.0219186432659626,0.004769881255924702,0.611419677734375,-0.4100703001022339,-2.4275996685028076,-0.13404050469398499,0.09854067116975784,-0.00021299681975506246,0.0,0.0,0.0,0.0,-0.29999491024331576,-0.5196181808098181,0.5
1.113,TAKEOFF,intermittent,1.0,0.5914779305458069,0.00805280078202486,-0.0012098787119612098,0.01233693864196539,0.012790540233254433,-0.0029141597915440798,0.1380252242088318,0.09959228336811066,6.896695137023926,0.08513002842664719,0.12113391607999802,-0.17349298298358917,0.0,0.0,0.0,0.0,0.6,0.0,0.5,-0.46032434701919556,0.5606998801231384,0.0048858593218028545,0.0031198568176478148,-0.0033125411719083786,-0.0038501161616295576,0.3756224811077118,-1.3334441184997559,2.495919704437256,0.06883545964956284,-0.4079190194606781,0.015111199580132961,0.0,0.0,0.0,0.0,-0.3000025448675481,0.51961377298239,0.5,-0.42688173055648804,-0.6217915415763855,0.007131015416234732,0.03191928192973137,-0.015989072620868683,0.01860651932656765,0.5901241898536682,-0.38582316040992737,-2.4408063888549805,-0.12442534416913986,-0.03693607077002525,0.06425851583480835,0.0,0.0,0.0,0.0,-0.29999491024331576,-0.5196181808098181,0.5
1.134,TAKEOFF,intermittent,1.0,0.5914779305458069,0.00805280078202486,-0.0012098787119612098,0.01304684765636921,0.01567545346915722,-0.001823417842388153,0.11908598244190216,0.09234634041786194,6.9066572189331055,0.12423603236675262,0.360744446516037,0.010951755568385124,0.0,0.0,0.0,0.0,0.6,0.0,0.5,-0.46032434701919556,0.5606998801231384,0.0048858593218028545,0.007339712232351303,-0.006379485130310059,-0.007469710893929005,0.4010061025619507,-1.3642232418060303,2.447026252746582,0.07588019967079163,0.02834709919989109,0.00587834557518363,0.0,0.0,0.0,0.0,-0.3000025448675481,0.51961377298239,0.5,-0.42688173055648804,-0.6217915415763855,0.007131015416234732,0.029522765427827835,-0.013692622072994709,0.025677207857370377,0.5907428860664368,-0.38647741079330444,-2.438704490661621,0.02271225117146969,0.1349092572927475,-0.09740187972784042,0.0,0.0,0.0,0.0,-0.29999491024331576,-0.5196181808098181,0.5
1.154,TAKEOFF,intermittent,1.0,0.5914779305458069,0.00805280078202486,-0.0012098787119612098,-0.0036063522566109896,0.006980545353144407,-0.0037967944517731667,0.09689634293317795,0.11438731849193573,6.976095199584961,0.3449050784111023,0.1194966733455658,0.16569207608699799,0.0,0.0,0.0,0.0,0.6,0.0,0.5,-0.46032434701919556,0.5606998801231384,0.0048858593218028545,0.007339712232351303,-0.006379485130310059,-0.007469710893929005,0.34792110323905945,-1.2767832279205322,2.4685492515563965,0.030871301889419556,0.12721076607704163,0.10009227693080902,0.0,0.0,0.0,0.0,-0.3000025448675481,0.51961377298239,0.5,-0.42688173055648804,-0.6217915415763855,0.007131015416234732,0.03021809458732605,-0.01397152803838253,0.025793829932808876,0.5907428860664368,-0.38647741079330444,-2.438704490661621,0.02271225117146969,0.1349092572927475,-0.09740187972784042,0.0,0.0,0.0,0.0,-0.29999491024331576,-0.5196181808098181,0.5
1.173,TAKEOFF,intermittent,1.0,0.5883838534355164,0.009698227979242802,-0.0009789938339963555,-0.0038018766790628433,0.007531932555139065,-0.0035676199477165937,0.18294578790664673,0.2341652661561966,6.979780197143555,0.08917249739170074,0.07498739659786224,0.07406765967607498,0.0,0.0,0.0,0.0,0.6,0.0,0.5,-0.46032434701919556,0.5606998801231384,0.0048858593218028545,-0.002577352337539196,-0.0007912266883067787,-0.003344370052218437,0.3720290958881378,-1.3153181076049805,2.4219629764556885,-0.325735479593277,0.05740058049559593,-0.04894840344786644,0.0,0.0,0.0,0.0,-0.3000025448675481,0.51961377298239,0.5,-0.42442789673805237,-0.6219735741615295,0.011720167472958565,0.03021809458732605,-0.01397152803838253,0.025793829932808876,0.5896735787391663,-0.38799187541007996,-2.4379844665527344,-0.2985922694206238,0.12057959288358688,-0.14650079607963562,0.0,0.0,0.0,0.0,-0.29999491024331576,-0.5196181808098181,0.5
1.193,TAKEOFF,intermittent,1.0,0.5883838534355164,0.009698227979242802,-0.0009789938339963555,-0.008608506992459297,0.003257146803662181,-0.006670105736702681,0.1914786547422409,0.28145939111709595,7.028156757354736,0.01616823486983776,-0.05744152143597603,-0.11628333479166031,0.0,0.0,0.0,0.0,0.6,0.0,0.5,-0.46085286140441895,0.5609683990478516,0.003596458351239562,-0.0022021690383553505,-0.0005281695048324764,0.0007330055232159793,0.3424642086029053,-1.2760766744613647,2.448840618133545,-0.05587051808834076,0.09828892350196838,0.10455711930990219,0.0,0.0,0.0,0.0,-0.3000025448675481,0.51961377298239,0.5,-0.42442789673805237,-0.6219735741615295,0.011720167472958565,0.024334371089935303,-0.009351102635264397,0.02331908792257309,0.5438918471336365,-0.3295818567276001,-2.3933098316192627,-0.07924192398786545,0.15826517343521118,-0.006897179409861565,0.0,0.0,0.0,0.0,-0.29999491024331576,-0.5196181808098181,0.5
1.214,TAKEOFF,intermittent,1.0,0.5883838534355164,0.009698227979242802,-0.0009789938339963555,-0.00990297831594944,0.007257274817675352,-0.002408270025625825,0.1914786547422409,0.28145939111709595,7.028156757354736,0.01616823486983776,-0.05744152143597603,-0.11628333479166031,0.0,0.0,0.0,0.0,0.6,0.0,0.5,-0.46085286140441895,0.5609683990478516,0.003596458351239562,-0.006365753244608641,0.0037907303776592016,0.006522681098431349,0.30188530683517456,-1.243354320526123,2.5116078853607178,-0.11705445498228073,0.19510063529014587,-0.05029166862368584,0.0,0.0,0.0,0.0,-0.3000025448675481,0.51961377298239,0.5,-0.42442789673805237,-0.6219735741615295,0.011720167472958565,-0.005989968776702881,0.008954050950706005,-0.003033646382391453,0.4210645854473114,-0.08771336823701859,-2.4111435413360596,-0.14834432303905487,0.13465464115142822,-0.08373014628887177,0.0,0.0,0.0,0.0,-0.29999491024331576,-0.5196181808098181,0.5
1.233,TAKEOFF,intermittent,1.0,0.5883838534355164,0.009698227979242802,-0.0009789938339963555,-0.010757489129900932,0.003795995144173503,-0.007203850895166397,0.1916896402835846,0.2807285487651825,7.027186393737793,0.011908263899385929,0.21795494854450226,0.11618509888648987,0.0,0.0,0.0,0.0,0.6,0.0,0.5,-0.46085286140441895,0.5609683990478516,0.003596458351239562,-0.004644305910915136,0.005776156205683947,0.0043177432380616665,0.2868412137031555,-1.2665150165557861,2.4911317825317383,-0.0520470105111599,-0.10522328317165375,-0.4210972785949707,0.0,0.0,0.0,0.0,-0.3000025448675481,0.51961377298239,0.5,-0.42442789673805237,-0.6219735741615295,0.011720167472958565,-0.00625214958563447,0.009405975230038166,-0.003419539425522089,0.4637160301208496,-0.16451390087604523,-2.3926470279693604,-0.12329519540071487,-0.1217343732714653,0.2119421660900116,0.0,0.0,0.0,0.0,-0.29999491024331576,-0.5196181808098181,0.5
1.253,TAKEOFF,intermittent,1.0,0.5883838534355164,0.009698227979242802,-0.0009789938339963555,-0.01046676654368639,0.003909044433385134,-0.00476250471547246,0.20557112991809845,0.2790663242340088,7.080560684204102,0.2810843288898468,0.04865558445453644,0.049308113753795624,0.0,0.0,0.0,0.0,0.6,0.0,0.5,-0.46085286140441895,0.5609683990478516,0.003596458351239562,-0.004838030785322189,0.005607314873486757,0.004668012261390686,0.285133421421051,-1.2638044357299805,2.48919415473938,-0.07108975201845169,0.08845336735248566,0.27769818902015686,0.0,0.0,0.0,0.0,-0.3000025448675481,0.51961377298239,0.5,-0.42442789673805237,-0.6219735741615295,0.011720167472958565,0.0026389341801404953,0.0035476279444992542,-0.0010294633684679866,0.4640723168849945,-0.1655551642179489,-2.392620325088501,0.16018231213092804,-0.07507409900426865,-0.009835748001933098,0.0,0.0,0.0,0.0,-0.29999491024331576,-0.5196181808098181,0.5
1.273,TAKEOFF,intermittent,1.0,0.5863704085350037,0.009464273229241371,-0.0015080006560310721,0.002943623811006546,-0.006697976030409336,-0.0007508190465159714,0.22378267347812653,0.2779006063938141,7.070319652557373,0.035478267818689346,0.03437681123614311,0.19965983927249908,0.0,0.0,0.0,0.0,0.6,0.0,0.5,-0.4638894200325012,0.564123809337616,0.003996269311755896,-0.003282566787675023,0.006146138068288565,0.0020566703751683235,0.280295729637146,-1.2801882028579712,2.474806308746338,0.1020570769906044,-0.12242588400840759,-0.12805049121379852,0.0,0.0,0.0,0.0,-0.3000025448675481,0.51961377298239,0.5,-0.4287185072898865,-0.6198701858520508,0.007499148603528738,0.002826779382303357,0.00410002376884222,-0.0010632649064064026,0.46523532271385193,-0.166325643658638,-2.392670154571533,-0.12447754293680191,-0.018249230459332466,0.14421406388282776,0.0,0.0,0.0,0.0,-0.29999491024331576,-0.5196181808098181,0.5
1.293,TAKEOFF,intermittent,1.0,0.5863704085350037,0.009464273229241371,-0.0015080006560310721,-0.002089617308229208,-0.004065705928951502,-0.0008225123165175319,0.270277738571167,0.19099624454975128,7.054874897003174,-0.07502999156713486,0.03127862885594368,-0.1178838387131691,0.0,0.0,0.0,0.0,0.6,0.0,0.5,-0.4638894200325012,0.564123809337616,0.003996269311755896,-0.006384976673871279,0.012908651493489742,0.001131644705310464,0.22601014375686646,-1.2573350667953491,2.516059637069702,-0.07275933772325516,-0.11122933775186539,0.2416422963142395,0.0,0.0,0.0,0.0,-0.3000025448675481,0.51961377298239,0.5,-0.4287185072898865,-0.6198701858520508,0.007499148603528738,-0.01690859906375408,0.02386694774031639,-0.01112945843487978,0.3146011233329773,0.009947274811565876,-2.3905842304229736,0.23069646954536438,0.10583506524562836,-0.1074841246008873,0.0,0.0,0.0,0.0,-0.29999491024331576,-0.5196181808098181,0.5
1.313,TAKEOFF,intermittent,1.0,0.5863704085350037,0.009464273229241371,-0.0015080006560310721,-0.0019083090592175722,-0.004150290507823229,-0.0007454630103893578,0.296880841255188,0.2203897386789322,7.054616451263428,0.03516006842255592,0.05696984380483627,0.2676515579223633,0.0,0.0,0.0,0.0,0.6,0.0,0.5,-0.4638894200325012,0.564123809337616,0.003996269311755896,-0.006490509491413832,0.013204733841121197,0.0014819292118772864,0.22601749002933502,-1.2573308944702148,2.5182199478149414,-0.01679844968020916,0.10574307292699814,0.01615760661661625,0.0,0.0,0.0,0.0,-0.3000025448675481,0.51961377298239,0.5,-0.4287185072898865,-0.6198701858520508,0.007499148603528738,-0.020559176802635193,0.025316497310996056,-0.01608574204146862,0.34893715381622314,-0.02799091674387455,-2.3785505294799805,0.055909790098667145,0.21040478348731995,0.06453558802604675,0.0,0.0,0.0,0.0,-0.29999491024331576,-0.5196181808098181,0.5
1.333,TAKEOFF,intermittent,1.0,0.5863704085350037,0.009464273229241371,-0.0015080006560310721,0.01972036622464657,-0.0020041719544678926,0.00062845170032233,0.2389344424009323,0.23565052449703217,7.121631145477295,0.08540506660938263,0.19495746493339539,0.008443834260106087,0.0,0.0,0.0,0.0,0.6,0.0,0.5,-0.4638894200325012,0.564123809337616,0.003996269311755896,0.005687349941581488,-0.004730790387839079,0.002573855221271515,0.224495530128479,-1.2595148086547852,2.5170249938964844,0.15530718863010406,-0.2285463660955429,0.06604235619306564,0.0,0.0,0.0,0.0,-0.3000025448675481,0.51961377298239,0.5,-0.4287185072898865,-0.6198701858520508,0.007499148603528738,-0.01697118580341339,0.024243168532848358,-0.014442501589655876,0.32434767484664917,-0.003909608349204063,-2.3805689811706543,-0.0546218566596508,0.2120564877986908,0.12523353099822998,0.0,0.0,0.0,0.0,-0.29999491024331576,-0.5196181808098181,0.5
1.353,TAKEOFF,intermittent,1.0,0.5863704085350037,0.009464273229241371,-0.0015080006560310721,0.020574431866407394,-0.001996106468141079,0.0009170577395707369,0.19767172634601593,0.0919928029179573,7.105215072631836,0.03555933013558388,0.05707850307226181,-0.21005560457706451,0.0,0.0,0.0,0.0,0.6,0.0,0.5,-0.4638894200325012,0.564123809337616,0.003996269311755896,0.006709082517772913,-0.004060104954987764,0.001780644990503788,0.37646400928497314,-1.3619184494018555,2.5116491317749023,-0.19629620015621185,0.18892833590507507,0.07450684159994125,0.0,0.0,0.0,0.0,-0.3000025448675481,0.51961377298239,0.5,-0.4287185072898865,-0.6198701858520508,0.007499148603528738,-0.018740568310022354,0.02455620840191841,-0.01618458516895771,0.3787398636341095,-0.06860335171222687,-2.378638505935669,0.09922871738672256,0.06397837400436401,0.029144516214728355,0.0,0.0,0.0,0.0,-0.29999491024331576,-0.5196181808098181,0.5
1.373,TAKEOFF,intermittent,1.0,0.5911558866500854,0.010667628608644009,-0.0005743534420616925,0.02951393648982048,0.006525830365717411,0.004366725217550993,0.19767172634601593,0.0919928029179573,7.105215072631836,0.03555933013558388,0.05707850307226181,-0.21005560457706451,0.0,0.0,0.0,0.0,0.6,0.0,0.5,-0.4638894200325012,0.564123809337616,0.003996269311755896,0.01385082583874464,-0.01189091894775629,-0.0005621080636046827,0.439582496881485,-1.4150539636611938,2.4646408557891846,-0.0922236293554306,-0.04148268327116966,-0.054212965071201324,0.0,0.0,0.0,0.0,-0.3000025448675481,0.51961377298239,0.5,-0.4302729070186615,-0.6191797852516174,0.004888350144028664,-0.010570698417723179,0.018778838217258453,-0.010824054479598999,0.4294930100440979,-0.13339601457118988,-2.354203939437866,0.07758840918540955,-0.2628176212310791,-0.19996386766433716,0.0,0.0,0.0,0.0,-0.29999491024331576,-0.5196181808098181,0.5
1.393,TAKEOFF,intermittent,1.0,0.5911558866500854,0.010667628608644009,-0.0005743534420616925,0.0191053319722414,-0.012602875009179115,-0.0010630449978634715,0.251808762550354,-0.021892525255680084,7.030110836029053,-0.129996195435524,0.05577457696199417,-0.04161687195301056,0.0,0.0,0.0,0.0,0.6,0.0,0.5,-0.4601489305496216,0.5610098838806152,0.004277713131159544,0.004156153649091721,-0.004033567849546671,0.002841918496415019,0.3717733323574066,-1.3362761735916138,2.518641710281372,-0.0019337788689881563,0.26425883173942566,-0.10885744541883469,0.0,0.0,0.0,0.0,-0.3000025448675481,0.51961377298239,0.5,-0.4302729070186615,-0.6191797852516174,0.004888350144028664,-0.011931060813367367,0.02272181399166584,-0.010407608933746815,0.42036500573158264,-0.1491316556930542,-2.343165397644043,0.03623385354876518,-0.14650727808475494,-0.12464679777622223,0.0,0.0,0.0,0.0,-0.29999491024331576,-0.5196181808098181,0.5
1.414,TAKEOFF,intermittent,1.0,0.5911558866500854,0.010667628608644009,-0.0005743534420616925,0.018173882737755775,-0.0047580101527273655,0.0013436318840831518,0.3264126777648926,0.07505832612514496,7.041713714599609,-0.06411787122488022,-0.07380613684654236,-0.21355029940605164,0.0,0.0,0.0,0.0,0.6,0.0,0.5,-0.4601489305496216,0.5610098838806152,0.004277713131159544,0.0007420546025969088,0.0008605660987086594,0.0022744331508874893,0.3271767497062683,-1.3097940683364868,2.5543129444122314,-0.007519992534071207,-0.17680275440216064,0.13283099234104156,0.0,0.0,0.0,0.0,-0.3000025448675481,0.51961377298239,0.5,-0.4302729070186615,-0.6191797852516174,0.004888350144028664,-0.0048465728759765625,0.013076722621917725,-0.0034297234378755093,0.4817964434623718,-0.19608791172504425,-2.325383424758911,0.022652626037597656,0.3308984637260437,-0.09495129436254501,0.0,0.0,0.0,0.0,-0.29999491024331576,-0.5196181808098181,0.5
1.433,TAKEOFF,intermittent,1.0,0.5911558866500854,0.010667628608644009,-0.0005743534420616925,0.018597230315208435,-0.0047433143481612206,0.001314098248258233,0.3264126777648926,0.07505832612514496,7.041713714599609,-0.06411787122488022,-0.07380613684654236,-0.21355029940605164,0.0,0.0,0.0,0.0,0.6,0.0,0.5,-0.4601489305496216,0.5610098838806152,0.004277713131159544,0.0008911750046536326,0.001030270359478891,0.0021505141630768776,0.327258437871933,-1.3085136413574219,2.5560405254364014,-0.052644453942775726,-0.1657589226961136,-0.42918503284454346,0.0,0.0,0.0,0.0,-0.3000025448675481,0.51961377298239,0.5,-0.4302729070186615,-0.6191797852516174,0.004888350144028664,0.0026991863269358873,0.007420658133924007,0.001195320743136108,0.5145792961120605,-0.24108922481536865,-2.3079731464385986,-0.24092113971710205,0.2105565220117569,-0.09845373779535294,0.0,0.0,0.0,0.0,-0.29999491024331576,-0.5196181808098181,0.5
1.455,TAKEOFF,intermittent,1.0,0.5911558866500854,0.010667628608644009,-0.0005743534420616925,0.030734160915017128,-0.008717401884496212,0.001805947395041585,0.23080037534236908,0.0604441836476326,7.04577112197876,-0.010760612785816193,0.08010175079107285,0.0015098960138857365,0.0,0.0,0.0,0.0,0.6,0.0,0.5,-0.4601489305496216,0.5610098838806152,0.004277713131159544,0.002103526843711734,0.0007648524479009211,-0.00031487614614889026,0.3285520672798157,-1.3142341375350952,2.5295093059539795,-0.05414274334907532,-0.09179425239562988,-0.12195578217506409,0.0,0.0,0.0,0.0,-0.3000025448675481,0.51961377298239,0.5,-0.4302729070186615,-0.6191797852516174,0.004888350144028664,0.007527126930654049,0.003335524583235383,0.003697998123243451,0.537819504737854,-0.2703387141227722,-2.2874298095703125,-0.05687476694583893,-0.032158609479665756,-0.16007912158966064,0.0,0.0,0.0,0.0,-0.29999491024331576,-0.5196181808098181,0.5
1.473,TAKEOFF,intermittent,1.0,0.5928207635879517,0.010878541506826878,-0.0005520708509720862,0.02015865594148636,0.008327252231538296,0.0015070209046825767,0.23080037534236908,0.0604441836476326,7.04577112197876,-0.010760612785816193,0.08010175079107285,0.0015098960138857365,0.0,0.0,0.0,0.0,0.6,0.0,0.5,-0.46373486518859863,0.5642346739768982,0.00400471780449152,0.0025090212002396584,0.00031835713889449835,-0.00204551313072443,0.3348512649536133,-1.3176822662353516,2.5091676712036133,0.07937774062156677,0.2935670018196106,-0.14137743413448334,0.0,0.0,0.0,0.0,-0.3000025448675481,0.51961377298239,0.5,-0.4262555241584778,-0.6214712858200073,0.006613704841583967,0.011382346972823143,0.00010351929086027667,0.005546084139496088,0.27862513065338135,0.02083241008222103,-2.2875163555145264,0.01466745138168335,0.24770715832710266,-0.08334407210350037,0.0,0.0,0.0,0.0,-0.29999491024331576,-0.5196181808098181,0.5
1.496,TAKEOFF,intermittent,1.0,0.5928207635879517,0.010878541506826878,-0.0005520708509720862,0.012070819735527039,0.017792580649256706,-0.0006442351150326431,0.2934592068195343,0.32121267914772034,7.091072082519531,0.14482317864894867,0.13937623798847198,0.16318149864673615,0.0,0.0,0.0,0.0,0.6,0.0,0.5,-0.46373486518859863,0.5642346739768982,0.00400471780449152,0.0025697136297822,0.0001944277319125831,-0.001571207889355719,0.3365778625011444,-1.3214635848999023,2.5090739727020264,0.08546200394630432,0.03496754541993141,-0.05731132999062538,0.0,0.0,0.0,0.0,-0.3000025448675481,0.51961377298239,0.5,-0.4262555241584778,-0.6214712858200073,0.006613704841583967,-0.026521438732743263,0.03237738087773323,-0.0029568630270659924,0.2780086398124695,0.07589703798294067,-2.313446521759033,-0.10051237046718597,0.08042998611927032,0.09552592039108276,0.0,0.0,0.0,0.0,-0.29999491024331576,-0.5196181808098181,0.5
1.513,TAKEOFF,intermittent,1.0,0.5928207635879517,0.010878541506826878,-0.0005520708509720862,-0.014056537300348282,-0.002899164566770196,-0.0002920928527601063,0.2934592068195343,0.32121267914772034,7.091072082519531,0.14482317864894867,0.13937623798847198,0.16318149864673615,0.0,0.0,0.0,0.0,0.6,0.0,0.5,-0.46373486518859863,0.5642346739768982,0.00400471780449152,0.002736512338742614,0.00010853005369426683,-0.0014568924671038985,0.33720117807388306,-1.3222007751464844,2.5087838172912598,-0.09618909657001495,0.009979002177715302,-0.25585803389549255,0.0,0.0,0.0,0.0,-0.3000025448675481,0.51961377298239,0.5,-0.4262555241584778,-0.6214712858200073,0.006613704841583967,-0.032120879739522934,0.03673415631055832,-0.005706485360860825,0.3161712884902954,-0.006876121275126934,-2.3062353134155273,0.03941420838236809,0.2368905395269394,-0.00461933808401227,0.0,0.0,0.0,0.0,-0.29999491024331576,-0.5196181808098181,0.5
1.534,TAKEOFF,intermittent,1.0,0.5928207635879517,0.010878541506826878,-0.0005520708509720862,-0.014056537300348282,-0.002899164566770196,-0.0002920928527601063,0.2934592068195343,0.32121267914772034,7.091072082519531,0.14482317864894867,0.13937623798847198,0.16318149864673615,0.0,0.0,0.0,0.0,0.6,0.0,0.5,-0.46373486518859863,0.5642346739768982,0.00400471780449152,0.002736512338742614,0.00010853005369426683,-0.0014568924671038985,0.33720117807388306,-1.3222007751464844,2.5087838172912598,-0.09618909657001495,0.009979002177715302,-0.25585803389549255,0.0,0.0,0.0,0.0,-0.3000025448675481,0.51961377298239,0.5,-0.4262555241584778,-0.6214712858200073,0.006613704841583967,-0.032120879739522934,0.03673415631055832,-0.005706485360860825,0.3161712884902954,-0.006876121275126934,-2.3062353134155273,0.03941420838236809,0.2368905395269394,-0.00461933808401227,0.0,0.0,0.0,0.0,-0.29999491024331576,-0.5196181808098181,0.5
1.553,TAKEOFF,intermittent,1.0,0.5928207635879517,0.010878541506826878,-0.0005520708509720862,-0.014637185260653496,-0.002697722753509879,9.370379848405719e-05,0.2927178144454956,0.3189919590950012,7.091145038604736,0.20546098053455353,-0.06388618797063828,-0.017944779247045517,0.0,0.0,0.0,0.0,0.6,0.0,0.5,-0.46373486518859863,0.5642346739768982,0.00400471780449152,0.003998422995209694,-0.00044517393689602613,-0.0029821456409990788,0.34005311131477356,-1.324668526649475,2.499624252319336,-0.08995968848466873,0.19580255448818207,-0.0984339788556099,0.0,0.0,0.0,0.0,-0.3000025448675481,0.51961377298239,0.5,-0.4262555241584778,-0.6214712858200073,0.006613704841583967,-0.02443944849073887,0.027521098032593727,-0.007423818111419678,0.43705230951309204,-0.14755263924598694,-2.302765130996704,-0.004120377823710442,0.11279471218585968,-0.10519895702600479,0.0,0.0,0.0,0.0,-0.29999491024331576,-0.5196181808098181,0.5
1.576,TAKEOFF,intermittent,1.0,0.5873890519142151,0.008842782117426395,-0.000620757695287466,-0.014637185260653496,-0.002697722753509879,9.370379848405719e-05,0.2942843735218048,0.31961682438850403,7.09102201461792,-0.01678769662976265,0.08452419191598892,-0.20513048768043518,0.0,0.0,0.0,0.0,0.6,0.0,0.5,-0.46373486518859863,0.5642346739768982,0.00400471780449152,0.003998422995209694,-0.00044517393689602613,-0.0029821456409990788,0.40358737111091614,-1.3438316583633423,2.517808198928833,0.04719829186797142,-0.14633996784687042,-0.08223848044872284,0.0,0.0,0.0,0.0,-0.3000025448675481,0.51961377298239,0.5,-0.43004149198532104,-0.6192530393600464,0.0055268858559429646,-0.0059024435468018055,0.0161232128739357,0.0010780286975204945,0.43705230951309204,-0.14755263924598694,-2.302765130996704,-0.004120377823710442,0.11279471218585968,-0.10519895702600479,0.0,0.0,0.0,0.0,-0.29999491024331576,-0.5196181808098181,0.5
1.595,TAKEOFF,intermittent,1.0,0.5873890519142151,0.008842782117426395,-0.000620757695287466,-0.014637185260653496,-0.002697722753509879,9.370379848405719e-05,0.2942843735218048,0.31961682438850403,7.09102201461792,-0.01678769662976265,0.08452419191598892,-0.20513048768043518,0.0,0.0,0.0,0.0,0.6,0.0,0.5,-0.46373486518859863,0.5642346739768982,0.00400471780449152,0.003998422995209694,-0.00044517393689602613,-0.0029821456409990788,0.40358737111091614,-1.3438316583633423,2.517808198928833,0.04719829186797142,-0.14633996784687042,-0.08223848044872284,0.0,0.0,0.0,0.0,-0.3000025448675481,0.51961377298239,0.5,-0.43004149198532104,-0.6192530393600464,0.0055268858559429646,-0.0059024435468018055,0.0161232128739357,0.0010780286975204945,0.43705230951309204,-0.14755263924598694,-2.302765130996704,-0.004120377823710442,0.11279471218585968,-0.10519895702600479,0.0,0.0,0.0,0.0,-0.29999491024331576,-0.5196181808098181,0.5
1.614,TAKEOFF,intermittent,1.0,0.5873890519142151,0.008842782117426395,-0.000620757695287466,-0.017144644632935524,0.00469166086986661,0.0064098164439201355,0.22039580345153809,0.32009798288345337,7.199265003204346,-0.13682571053504944,0.03284347802400589,0.09801279008388519,0.0,0.0,0.0,0.0,-0.12170881421203501,0.5875261394551738,0.5,-0.46115440130233765,0.5623456835746765,0.004344591870903969,0.007770505268126726,-0.00933693628758192,0.0005194434779696167,0.404391884803772,-1.3426997661590576,2.515497922897339,0.06996443122625351,-0.0022202148102223873,-0.2987130880355835,0.0,0.0,0.0,0.0,-0.44684408240130236,-0.40041274458106113,0.5,-0.43004149198532104,-0.6192530393600464,0.0055268858559429646,0.00509647699072957,0.008835481479763985,0.0049081225879490376,0.4879114329814911,-0.23369824886322021,-2.2915430068969727,-0.1480662226676941,-0.01526552438735962,0.011622420512139797,0.0,0.0,0.0,0.0,0.5707079030028691,-0.1851823140855188,0.5
1.633,TAKEOFF,intermittent,1.0,0.5873890519142151,0.008842782117426395,-0.000620757695287466,0.007731643971055746,-0.007256901357322931,-0.00033281047944910824,0.35768064856529236,0.15298965573310852,7.113057613372803,-0.18000848591327667,0.16721367835998535,0.10148153454065323,0.0,0.0,0.0,0.0,0.6,0.0,0.5,-0.46115440130233765,0.5623456835746765,0.004344591870903969,0.012392195872962475,-0.01622840017080307,0.00014352996367961168,0.45332780480384827,-1.3746026754379272,2.4418139457702637,-0.07335137575864792,0.011002104729413986,0.06869413703680038,0.0,0.0,0.0,0.0,-0.3000025448675481,0.51961377298239,0.5,-0.43004149198532104,-0.6192530393600464,0.0055268858559429646,-0.02502063475549221,0.025611938908696175,-0.0030089127831161022,0.42328596115112305,-0.09783322364091873,-2.3222362995147705,-0.04756584390997887,0.11959056556224823,-0.1756163090467453,0.0,0.0,0.0,0.0,-0.29999491024331576,-0.5196181808098181,0.5
1.657,TAKEOFF,intermittent,1.0,0.5873890519142151,0.008842782117426395,-0.000620757695287466,0.007731643971055746,-0.007256901357322931,-0.00033281047944910824,0.35768064856529236,0.15298965573310852,7.113057613372803,-0.18000848591327667,0.16721367835998535,0.10148153454065323,0.0,0.0,0.0,0.0,0.6,0.0,0.5,-0.46115440130233765,0.5623456835746765,0.004344591870903969,0.012392195872962475,-0.01622840017080307,0.00014352996367961168,0.45332780480384827,-1.3746026754379272,2.4418139457702637,-0.07335137575864792,0.011002104729413986,0.06869413703680038,0.0,0.0,0.0,0.0,-0.3000025448675481,0.51961377298239,0.5,-0.43004149198532104,-0.6192530393600464,0.0055268858559429646,-0.02502063475549221,0.025611938908696175,-0.0030089127831161022,0.42328596115112305,-0.09783322364091873,-2.3222362995147705,-0.04756584390997887,0.11959056556224823,-0.1756163090467453,0.0,0.0,0.0,0.0,-0.29999491024331576,-0.5196181808098181,0.5
1.674,TAKEOFF,intermittent,1.0,0.5910829901695251,0.00935378298163414,-0.0006193274166435003,0.01621859148144722,-0.003930618055164814,-0.0001417583116563037,0.3374229073524475,0.0949832871556282,7.097603797912598,0.11773169040679932,-0.13648445904254913,-0.05228596180677414,0.0,0.0,0.0,0.0,0.6,0.0,0.5,-0.46115440130233765,0.5623456835746765,0.004344591870903969,0.013021118007600307,-0.016667412593960762,-5.7582732551964e-05,0.45098841190338135,-1.3762469291687012,2.4426109790802,-0.1533064991235733,0.21957355737686157,-0.05820458009839058,0.0,0.0,0.0,0.0,-0.3000025448675481,0.51961377298239,0.5,-0.4301084578037262,-0.6191388964653015,0.006054772529751062,-0.012867446057498455,0.0188687052577734,0.0034542956855148077,0.42693623900413513,-0.10161183029413223,-2.3243088722229004,0.10833577811717987,-0.053494539111852646,0.0017246439820155501,0.0,0.0,0.0,0.0,-0.29999491024331576,-0.5196181808098181,0.5
1.694,TAKEOFF,intermittent,1.0,0.5910829901695251,0.00935378298163414,-0.0006193274166435003,0.016628440469503403,-0.0039390502497553825,-0.0003427145420573652,0.33841022849082947,0.09396350383758545,7.097858428955078,0.12569482624530792,-0.0448090136051178,-0.07108353823423386,0.0,0.0,0.0,0.0,0.6,0.0,0.5,-0.4588676691055298,0.5595558285713196,0.0043727317824959755,0.014631921425461769,-0.014856948517262936,-0.005053608678281307,0.43586409091949463,-1.3888548612594604,2.388927459716797,-0.030139897018671036,0.16735662519931793,0.13435140252113342,0.0,0.0,0.0,0.0,-0.3000025448675481,0.51961377298239,0.5,-0.4301084578037262,-0.6191388964653015,0.006054772529751062,-0.012879112735390663,0.019060177728533745,0.003656781278550625,0.42693623900413513,-0.10161183029413223,-2.3243088722229004,0.10833577811717987,-0.053494539111852646,0.0017246439820155501,0.0,0.0,0.0,0.0,-0.29999491024331576,-0.5196181808098181,0.5
1.717,TAKEOFF,intermittent,1.0,0.5910829901695251,0.00935378298163414,-0.0006193274166435003,0.02916497178375721,-0.0084744393825531,0.001154810655862093,0.3407268822193146,0.09365052729845047,7.098019599914551,-0.05377991124987602,-0.07971379160881042,0.026956701651215553,0.0,0.0,0.0,0.0,0.6,0.0,0.5,-0.4588676691055298,0.5595558285713196,0.0043727317824959755,0.014730483293533325,-0.013237815350294113,-0.006854463368654251,0.42124176025390625,-1.3878940343856812,2.341120719909668,0.32026201486587524,-0.28040260076522827,0.06385605037212372,0.0,0.0,0.0,0.0,-0.3000025448675481,0.51961377298239,0.5,-0.4301084578037262,-0.6191388964653015,0.006054772529751062,-0.012898024171590805,0.019371885806322098,0.003806323977187276,0.4250047504901886,-0.10648355633020401,-2.327038288116455,0.08105241507291794,-0.08242650330066681,-0.12597739696502686,0.0,0.0,0.0,0.0,-0.29999491024331576,-0.5196181808098181,0.5
1.734,TAKEOFF,intermittent,1.0,0.5910829901695251,0.00935378298163414,-0.0006193274166435003,0.030056428164243698,-0.008727770298719406,0.0012646294198930264,0.38416892290115356,0.005062063690274954,7.01748514175415,-0.05703505501151085,0.00855724886059761,-0.13273932039737701,0.0,0.0,0.0,0.0,0.6,0.0,0.5,-0.4588676691055298,0.5595558285713196,0.0043727317824959755,-0.0082590002566576,-0.0029129954054951668,-0.0013983988901600242,0.3297172784805298,-1.204270839691162,2.4243407249450684,-0.31162306666374207,-0.29053550958633423,-0.11784921586513519,0.0,0.0,0.0,0.0,-0.3000025448675481,0.51961377298239,0.5,-0.4301084578037262,-0.6191388964653015,0.006054772529751062,-0.01277789194136858,0.019582878798246384,0.003897489281371236,0.4263247847557068,-0.10820334404706955,-2.3281688690185547,0.038902826607227325,0.04661920666694641,-0.11200141906738281,0.0,0.0,0.0,0.0,-0.29999491024331576,-0.5196181808098181,0.5
1.754,TAKEOFF,intermittent,1.0,0.5910829901695251,0.00935378298163414,-0.0006193274166435003,0.030056428164243698,-0.008727770298719406,0.0012646294198930264,0.38416892290115356,0.005062063690274954,7.01748514175415,-0.05703505501151085,0.00855724886059761,-0.13273932039737701,0.0,0.0,0.0,0.0,0.6,0.0,0.5,-0.4588676691055298,0.5595558285713196,0.0043727317824959755,-0.0082590002566576,-0.0029129954054951668,-0.0013983988901600242,0.3297172784805298,-1.204270839691162,2.4243407249450684,-0.31162306666374207,-0.29053550958633423,-0.11784921586513519,0.0,0.0,0.0,0.0,-0.3000025448675481,0.51961377298239,0.5,-0.4301084578037262,-0.6191388964653015,0.006054772529751062,-0.01277789194136858,0.019582878798246384,0.003897489281371236,0.4263247847557068,-0.10820334404706955,-2.3281688690185547,0.038902826607227325,0.04661920666694641,-0.11200141906738281,0.0,0.0,0.0,0.0,-0.29999491024331576,-0.5196181808098181,0.5
1.777,TAKEOFF,intermittent,1.0,0.5903412699699402,0.005292048677802086,-0.00013186814612708986,0.0040100933983922005,-0.02343856729567051,0.004681508056819439,0.4606173038482666,0.2196667492389679,7.014668941497803,-0.020413827151060104,-0.22703507542610168,-0.14722974598407745,0.0,0.0,0.0,0.0,0.6,0.0,0.5,-0.4588676691055298,0.5595558285713196,0.0043727317824959755,-0.019084833562374115,0.0062012942507863045,0.006399471312761307,0.25250330567359924,-1.122130274772644,2.497168779373169,-0.11645124852657318,-0.12113846838474274,0.11206163465976715,0.0,0.0,0.0,0.0,-0.3000025448675481,0.51961377298239,0.5,-0.43139714002609253,-0.61719810962677,0.006432270165532827,-0.013316532596945763,0.020465265959501266,0.004148474894464016,0.4256150722503662,-0.11417468637228012,-2.3272042274475098,0.26984691619873047,0.17916052043437958,0.13962271809577942,0.0,0.0,0.0,0.0,-0.29999491024331576,-0.5196181808098181,0.5
1.793,TAKEOFF,intermittent,1.0,0.5903412699699402,0.005292048677802086,-0.00013186814612708986,0.0040100933983922005,-0.02343856729567051,0.004681508056819439,0.44421687722206116,0.24914081394672394,7.011350631713867,-0.21151672303676605,0.634133517742157,-0.1115436777472496,0.0,0.0,0.0,0.0,0.6,0.0,0.5,-0.4643087089061737,0.5622867345809937,0.0046879942528903484,-0.019084833562374115,0.0062012942507863045,0.006399471312761307,0.25250330567359924,-1.122130274772644,2.497168779373169,-0.11645124852657318,-0.12113846838474274,0.11206163465976715,0.0,0.0,0.0,0.0,-0.3000025448675481,0.51961377298239,0.5,-0.43139714002609253,-0.61719810962677,0.006432270165532827,-0.013316532596945763,0.020465265959501266,0.004148474894464016,0.4256150722503662,-0.11417468637228012,-2.3272042274475098,0.26984691619873047,0.17916052043437958,0.13962271809577942,0.0,0.0,0.0,0.0,-0.29999491024331576,-0.5196181808098181,0.5
1.818,TAKEOFF,intermittent,1.0,0.5903412699699402,0.005292048677802086,-0.00013186814612708986,-0.0031023609917610884,-0.007450897712260485,-0.00030851014889776707,0.2853841185569763,0.29528284072875977,7.062263488769531,0.20287717878818512,0.1265646368265152,-0.1773141622543335,0.0,0.0,0.0,0.0,0.6,0.0,0.5,-0.4643087089061737,0.5622867345809937,0.0046879942528903484,-0.018967298790812492,0.020867973566055298,0.003821114543825388,0.13901308178901672,-1.127604365348816,2.507950782775879,-0.04886429384350777,-0.18125678598880768,0.1934211254119873,0.0,0.0,0.0,0.0,-0.3000025448675481,0.51961377298239,0.5,-0.43139714002609253,-0.61719810962677,0.006432270165532827,-0.014128041453659534,0.012349152006208897,0.0005309413536451757,0.4775419235229492,-0.11057422310113907,-2.3474810123443604,0.058900292962789536,-0.021476803347468376,-0.026168545708060265,0.0,0.0,0.0,0.0,-0.29999491024331576,-0.5196181808098181,0.5
1.834,TAKEOFF,intermittent,1.0,0.5903412699699402,0.005292048677802086,-0.00013186814612708986,-0.007822501473128796,-0.0034755405504256487,0.000659430748783052,0.2831994891166687,0.2780320942401886,7.0393452644348145,0.04175339639186859,0.0027517785783857107,-0.21150119602680206,0.0,0.0,0.0,0.0,0.6,0.0,0.5,-0.4643087089061737,0.5622867345809937,0.0046879942528903484,-0.018574828281998634,0.0220638494938612,0.000327044544974342,0.1386149525642395,-1.1348237991333008,2.4859697818756104,-0.15753799676895142,-0.2822727560997009,0.2840135395526886,0.0,0.0,0.0,0.0,-0.3000025448675481,0.51961377298239,0.5,-0.43139714002609253,-0.61719810962677,0.006432270165532827,-0.024276679381728172,0.019359104335308075,-0.00741519033908844,0.444943904876709,-0.04873659089207649,-2.3890717029571533,-0.020861458033323288,0.16095547378063202,-0.09620916843414307,0.0,0.0,0.0,0.0,-0.29999491024331576,-0.5196181808098181,0.5
1.853,TAKEOFF,intermittent,1.0,0.5903412699699402,0.005292048677802086,-0.00013186814612708986,-0.008173598907887936,-0.003857447998598218,0.00048799009528011084,0.28587061166763306,0.274320513010025,7.038895606994629,0.14737123250961304,0.0823763906955719,-0.14467212557792664,0.0,0.0,0.0,0.0,0.6,0.0,0.5,-0.4643087089061737,0.5622867345809937,0.0046879942528903484,-0.018415531143546104,0.022471440955996513,-0.0027647020760923624,0.14399613440036774,-1.1386483907699585,2.4625461101531982,-0.2679823935031891,0.08148316293954849,0.18738925457000732,0.0,0.0,0.0,0.0,-0.3000025448675481,0.51961377298239,0.5,-0.43139714002609253,-0.61719810962677,0.006432270165532827,-0.024009495973587036,0.020145894959568977,-0.004775873385369778,0.4465145468711853,-0.050271205604076385,-2.3898394107818604,0.10555916279554367,0.05510387197136879,-0.11893316358327866,0.0,0.0,0.0,0.0,-0.29999491024331576,-0.5196181808098181,0.5
1.874,TAKEOFF,intermittent,1.0,0.58758944272995,0.007466217968612909,-0.0005668027442879975,-0.009177613072097301,-0.004479048773646355,-0.00010231458873022348,0.29213815927505493,0.27733415365219116,7.032719135284424,0.05676332861185074,-0.017895974218845367,-0.13526318967342377,0.0,0.0,0.0,0.0,0.6,0.0,0.5,-0.4653750956058502,0.5664010047912598,0.0038827983662486076,-0.018445555120706558,0.02422819472849369,0.0006081643514335155,0.13837964832782745,-1.142532229423523,2.52461838722229,0.1355324685573578,0.2445818930864334,0.252841055393219,0.0,0.0,0.0,0.0,-0.3000025448675481,0.51961377298239,0.5,-0.4345805048942566,-0.6154779195785522,0.004298773594200611,-0.0231049582362175,0.02046961337327957,-0.003439113264903426,0.44722995162010193,-0.06098982319235802,-2.3900816440582275,-0.051460716873407364,0.23352676630020142,-0.08597252517938614,0.0,0.0,0.0,0.0,-0.29999491024331576,-0.5196181808098181,0.5
1.893,TAKEOFF,intermittent,1.0,0.58758944272995,0.007466217968612909,-0.0005668027442879975,-0.011100338771939278,0.001067367265932262,-0.0007812426774762571,0.2447771579027176,0.2845064401626587,7.072491645812988,0.11049912124872208,0.02534741908311844,0.3074377477169037,0.0,0.0,0.0,0.0,0.6,0.0,0.5,-0.4653750956058502,0.5664010047912598,0.0038827983662486076,-0.01873726211488247,0.024886034429073334,-0.0029947019647806883,0.14336800575256348,-1.1471548080444336,2.503948926925659,-0.12757237255573273,-0.03994530066847801,-0.11217455565929413,0.0,0.0,0.0,0.0,-0.3000025448675481,0.51961377298239,0.5,-0.4345805048942566,-0.6154779195785522,0.004298773594200611,-0.013045926578342915,0.01161910779774189,0.0006480844458565116,0.525440514087677,-0.15925957262516022,-2.389228105545044,0.10517154633998871,-0.03413189947605133,-0.10746120661497116,0.0,0.0,0.0,0.0,-0.29999491024331576,-0.5196181808098181,0.5
1.914,TAKEOFF,intermittent,1.0,0.58758944272995,0.007466217968612909,-0.0005668027442879975,-0.010454927571117878,0.0004749794607050717,-0.0027305770199745893,0.25236812233924866,0.277899831533432,7.067004203796387,-0.05973448231816292,-0.13462845981121063,0.1105831041932106,0.0,0.0,0.0,0.0,0.6,0.0,0.5,-0.4653750956058502,0.5664010047912598,0.0038827983662486076,0.0015752959297969937,-0.0006627854891121387,-0.0027338124345988035,0.3617979884147644,-1.301688551902771,2.453045129776001,0.01059793122112751,0.007811440154910088,-0.055524468421936035,0.0,0.0,0.0,0.0,-0.3000025448675481,0.51961377298239,0.5,-0.4345805048942566,-0.6154779195785522,0.004298773594200611,-0.013288096524775028,0.012478554621338844,0.0036737031769007444,0.4788214862346649,-0.09409984946250916,-2.422097682952881,0.07703693211078644,-0.016558729112148285,-0.04518373683094978,0.0,0.0,0.0,0.0,-0.29999491024331576,-0.5196181808098181,0.5
1.935,TAKEOFF,intermittent,1.0,0.58758944272995,0.007466217968612909,-0.0005668027442879975,-0.010454927571117878,0.0004749794607050717,-0.0027305770199745893,0.25236812233924866,0.277899831533432,7.067004203796387,-0.05973448231816292,-0.13462845981121063,0.1105831041932106,0.0,0.0,0.0,0.0,0.6,0.0,0.5,-0.4653750956058502,0.5664010047912598,0.0038827983662486076,0.0015752959297969937,-0.0006627854891121387,-0.0027338124345988035,0.3617979884147644,-1.301688551902771,2.453045129776001,0.01059793122112751,0.007811440154910088,-0.055524468421936035,0.0,0.0,0.0,0.0,-0.3000025448675481,0.51961377298239,0.5,-0.4345805048942566,-0.6154779195785522,0.004298773594200611,-0.013288096524775028,0.012478554621338844,0.0036737031769007444,0.525440514087677,-0.15925957262516022,-2.389228105545044,0.10517154633998871,-0.03413189947605133,-0.10746120661497116,0.0,0.0,0.0,0.0,-0.29999491024331576,-0.5196181808098181,0.5
1.954,TAKEOFF,intermittent,1.0,0.58758944272995,0.007466217968612909,-0.0005668027442879975,0.004666642751544714,-0.007160794921219349,-0.0032459807116538286,0.33047786355018616,0.19546234607696533,6.993042469024658,0.05377926677465439,-0.10734746605157852,0.1325025111436844,0.0,0.0,0.0,0.0,0.6,0.0,0.5,-0.4653750956058502,0.5664010047912598,0.0038827983662486076,-0.0072150276973843575,0.003356246743351221,-0.0004914246965199709,0.32584676146507263,-1.231070637702942,2.5216217041015625,-0.04915115609765053,-0.08999187499284744,-0.20879842340946198,0.0,0.0,0.0,0.0,-0.3000025448675481,0.51961377298239,0.5,-0.4345805048942566,-0.6154779195785522,0.004298773594200611,-0.019096139818429947,0.018725117668509483,0.0009574409341439605,0.45890411734580994,-0.09535995125770569,-2.42187762260437,0.14038479328155518,0.07228441536426544,0.05606519430875778,0.0,0.0,0.0,0.0,-0.29999491024331576,-0.5196181808098181,0.5
1.974,TAKEOFF,intermittent,1.0,0.5929943919181824,0.006308219861239195,-0.0010253372602164745,0.004666642751544714,-0.007160794921219349,-0.0032459807116538286,0.3356136381626129,0.1563679575920105,6.9203009605407715,0.1144951730966568,-0.08033453673124313,-0.04873083159327507,0.0,0.0,0.0,0.0,0.6,0.0,0.5,-0.4632355272769928,0.5634332895278931,0.004327373579144478,-0.0072150276973843575,0.003356246743351221,-0.0004914246965199709,0.32584676146507263,-1.231070637702942,2.5216217041015625,-0.04915115609765053,-0.08999187499284744,-0.20879842340946198,0.0,0.0,0.0,0.0,-0.3000025448675481,0.51961377298239,0.5,-0.43427103757858276,-0.6165072321891785,0.004554701969027519,-0.019096139818429947,0.018725117668509483,0.0009574409341439605,0.45890411734580994,-0.09535995125770569,-2.42187762260437,0.14038479328155518,0.07228441536426544,0.05606519430875778,0.0,0.0,0.0,0.0,-0.29999491024331576,-0.5196181808098181,0.5
1.993,TAKEOFF,intermittent,1.0,0.5929943919181824,0.006308219861239195,-0.0010253372602164745,-0.0098028015345335,0.009327254258096218,0.002060861326754093,0.20065343379974365,0.2610539197921753,6.969699382781982,-0.07338187098503113,0.24862366914749146,-0.07860254496335983,0.0,0.0,0.0,0.0,0.6,0.0,0.5,-0.4632355272769928,0.5634332895278931,0.004327373579144478,-0.0066746994853019714,0.0046319919638335705,-0.0009560241596773267,0.31897422671318054,-1.2344330549240112,2.502558708190918,-0.21596232056617737,-0.2733447551727295,-0.18647737801074982,0.0,0.0,0.0,0.0,-0.3000025448675481,0.51961377298239,0.5,-0.43427103757858276,-0.6165072321891785,0.004554701969027519,-0.01442883349955082,0.01831214129924774,0.004601149819791317,0.4722885489463806,-0.14641785621643066,-2.3783862590789795,-0.048211269080638885,0.28995323181152344,0.012120389379560947,0.0,0.0,0.0,0.0,-0.29999491024331576,-0.5196181808098181,0.5
2.014,TAKEOFF,intermittent,1.0,0.5929943919181824,0.006308219861239195,-0.0010253372602164745,-0.002957718912512064,0.004602175205945969,0.0006380017148330808,0.23179496824741364,0.19922271370887756,6.917213439941406,-0.09979609400033951,0.17184774577617645,0.10186253488063812,0.0,0.0,0.0,0.0,0.6,0.0,0.5,-0.4632355272769928,0.5634332895278931,0.004327373579144478,-0.01216827891767025,0.011180616915225983,5.163688547327183e-05,0.2664371132850647,-1.194430947303772,2.537105083465576,-0.17551448941230774,0.11267311871051788,-0.09642022848129272,0.0,0.0,0.0,0.0,-0.3000025448675481,0.51961377298239,0.5,-0.43427103757858276,-0.6165072321891785,0.004554701969027519,-0.015462169423699379,0.018981019034981728,0.007478017359972,0.40489789843559265,-0.061933696269989014,-2.3883607387542725,0.19011852145195007,0.11685146391391754,-0.029481414705514908,0.0,0.0,0.0,0.0,-0.29999491024331576,-0.5196181808098181,0.5
2.034,TAKEOFF,intermittent,1.0,0.5929943919181824,0.006308219861239195,-0.0010253372602164745,-0.0028949244879186153,0.004704969935119152,0.0007966271950863302,0.23179496824741364,0.19922271370887756,6.917213439941406,-0.09979609400033951,0.17184774577617645,0.10186253488063812,0.0,0.0,0.0,0.0,0.6,0.0,0.5,-0.4632355272769928,0.5634332895278931,0.004327373579144478,-0.012623478658497334,0.011412106454372406,2.3579814296681434e-05,0.26558804512023926,-1.1944220066070557,2.5365869998931885,-0.24485871195793152,-0.08394292742013931,0.20211699604988098,0.0,0.0,0.0,0.0,-0.3000025448675481,0.51961377298239,0.5,-0.43427103757858276,-0.6165072321891785,0.004554701969027519,-0.025574538856744766,0.027678681537508965,0.0015112715773284435,0.40489789843559265,-0.061933696269989014,-2.3883607387542725,0.19011852145195007,0.11685146391391754,-0.029481414705514908,0.0,0.0,0.0,0.0,-0.29999491024331576,-0.5196181808098181,0.5
2.053,TAKEOFF,intermittent,1.0,0.5929943919181824,0.006308219861239195,-0.0010253372602164745,-0.01837068982422352,0.011380670592188835,0.0017186870099976659,0.16648408770561218,0.30988019704818726,6.977659702301025,0.019878074526786804,0.09241139143705368,-0.014072444289922714,0.0,0.0,0.0,0.0,0.6,0.0,0.5,-0.4632355272769928,0.5634332895278931,0.004327373579144478,-0.012907919473946095,0.011667932383716106,-4.822789196623489e-05,0.2648269236087799,-1.1922342777252197,2.5358731746673584,0.0629783570766449,-0.34513118863105774,0.23864400386810303,0.0,0.0,0.0,0.0,-0.3000025448675481,0.51961377298239,0.5,-0.43427103757858276,-0.6165072321891785,0.004554701969027519,-0.013427209109067917,0.020131587982177734,0.0006233397289179265,0.4656544625759125,-0.170756533741951,-2.3731019496917725,-0.03635898977518082,-0.06799907237291336,0.03284182772040367,0.0,0.0,0.0,0.0,-0.29999491024331576,-0.5196181808098181,0.5
2.074,TAKEOFF,intermittent,1.0,0.5871001482009888,0.009625479578971863,-0.00010712807124946266,-0.0020017523784190416,0.01397798303514719,0.0013252062490209937,0.1649107187986374,0.17707665264606476,6.966765880584717,-0.143208310008049,-0.20673730969429016,-0.13727815449237823,0.0,0.0,0.0,0.0,0.6,0.0,0.5,-0.46098658442497253,0.5622490048408508,0.004670174792408943,-0.001027810387313366,-0.005163157824426889,-0.00018176787125412375,0.40045279264450073,-1.2825355529785156,2.531099557876587,-0.26249510049819946,-0.027811601758003235,0.2395990639925003,0.0,0.0,0.0,0.0,-0.3000025448675481,0.51961377298239,0.5,-0.43118080496788025,-0.617201566696167,0.00514418538659811,-0.01359189860522747,0.02045154944062233,0.0005839110817760229,0.40472736954689026,-0.08537297695875168,-2.3735625743865967,-0.03942866995930672,0.07284977287054062,-0.01266584824770689,0.0,0.0,0.0,0.0,-0.29999491024331576,-0.5196181808098181,0.5
2.094,TAKEOFF,intermittent,1.0,0.5871001482009888,0.009625479578971863,-0.00010712807124946266,-0.009505764581263065,0.024571795016527176,0.001337273046374321,0.1649107187986374,0.17707665264606476,6.966765880584717,-0.143208310008049,-0.20673730969429016,-0.13727815449237823,0.0,0.0,0.0,0.0,0.6,0.0,0.5,-0.46098658442497253,0.5622490048408508,0.004670174792408943,-0.002452888758853078,-0.006192843895405531,-0.0013058059848845005,0.4034467041492462,-1.27101731300354,2.5323851108551025,-0.06641495227813721,0.004803526680916548,-0.20650218427181244,0.0,0.0,0.0,0.0,-0.3000025448675481,0.51961377298239,0.5,-0.43118080496788025,-0.617201566696167,0.00514418538659811,-0.02455906756222248,0.028886599466204643,-0.0026392245199531317,0.40700969099998474,-0.08553334325551987,-2.373443126678467,-0.23162424564361572,0.23106691241264343,0.01725042052567005,0.0,0.0,0.0,0.0,-0.29999491024331576,-0.5196181808098181,0.5
2.116,TAKEOFF,intermittent,1.0,0.5871001482009888,0.009625479578971863,-0.00010712807124946266,-0.01045787613838911,0.01205454021692276,-0.00039827634464018047,0.13976699113845825,0.3167335093021393,7.010382652282715,0.2186191827058792,-0.11524292081594467,-0.3197843134403229,0.0,0.0,0.0,0.0,0.6,0.0,0.5,-0.46098658442497253,0.5622490048408508,0.004670174792408943,-0.007868337444961071,-0.0017025232082232833,0.0008567969780415297,0.365001380443573,-1.2264831066131592,2.582057476043701,-0.06262712925672531,0.07363931834697723,0.2514633238315582,0.0,0.0,0.0,0.0,-0.3000025448675481,0.51961377298239,0.5,-0.43118080496788025,-0.617201566696167,0.00514418538659811,0.002663734834641218,0.009201833046972752,0.00016515961033292115,0.5534400343894958,-0.3058145344257355,-2.3599624633789062,-0.0874791145324707,0.10545799136161804,0.17560353875160217,0.0,0.0,0.0,0.0,-0.29999491024331576,-0.5196181808098181,0.5
2.135,TAKEOFF,intermittent,1.0,0.5871001482009888,0.009625479578971863,-0.00010712807124946266,-0.004235737957060337,0.011815471574664116,-0.002445651451125741,0.18315398693084717,0.2391619086265564,6.9720683097839355,0.2321835458278656,0.008207346312701702,-0.13137219846248627,0.0,0.0,0.0,0.0,0.6,0.0,0.5,-0.46098658442497253,0.5622490048408508,0.004670174792408943,-0.008110184222459793,-0.0020681957248598337,0.0011736092856153846,0.3643576204776764,-1.2254996299743652,2.584568738937378,-0.021291181445121765,0.18051736056804657,0.05380403995513916,0.0,0.0,0.0,0.0,-0.3000025448675481,0.51961377298239,0.5,-0.43118080496788025,-0.617201566696167,0.00514418538659811,0.0031150181312114,0.009254681877791882,0.00015079484728630632,0.5526391863822937,-0.30709829926490784,-2.3606271743774414,0.017117787152528763,0.030741466209292412,0.08165572583675385,0.0,0.0,0.0,0.0,-0.29999491024331576,-0.5196181808098181,0.5
2.154,TAKEOFF,intermittent,1.0,0.5871001482009888,0.009625479578971863,-0.00010712807124946266,-0.010255923494696617,0.024018140509724617,-0.0012395302765071392,0.10176252573728561,0.2280552238225937,6.983090400695801,-0.06574542820453644,-0.07026991248130798,0.07890698313713074,52416.0,48929.0,52927.0,49227.0,0.6,0.0,0.5,-0.46098658442497253,0.5622490048408508,0.004670174792408943,0.006013127509504557,-0.011462921276688576,-0.0027025563176721334,0.44149667024612427,-1.3275538682937622,2.5254926681518555,0.06211818382143974,0.048887837678194046,0.39636144042015076,52658.0,50674.0,51892.0,51130.0,-0.3000025448675481,0.51961377298239,0.5,-0.43118080496788025,-0.617201566696167,0.00514418538659811,-0.0030783885158598423,0.0023275050334632397,0.004690296947956085,0.6026579141616821,-0.26162800192832947,-2.3798749446868896,0.043502431362867355,0.1708385944366455,-0.027540192008018494,51399.0,52445.0,50739.0,52124.0,-0.29999491024331576,-0.5196181808098181,0.5
2.174,TAKEOFF,intermittent,1.0,0.591412365436554,0.010602869093418121,-0.0006507637444883585,-0.0030997986905276775,0.029616987332701683,0.00023253419203683734,0.10064281523227692,0.22910211980342865,6.983198165893555,-0.025978440418839455,0.2102101445198059,-1.3537931442260742,53153.0,49433.0,52778.0,49532.0,0.6,0.0,0.5,-0.46098658442497253,0.5622490048408508,0.004670174792408943,0.005335303954780102,-0.011724218726158142,0.0015099964803084731,0.4365731477737427,-1.319382667541504,2.5171751976013184,-0.09659139811992645,-0.32356464862823486,0.1944507509469986,53092.0,51177.0,52166.0,51489.0,-0.3000025448675481,0.51961377298239,0.5,-0.4313322901725769,-0.618253231048584,0.005798907484859228,-0.0025578916538506746,0.0012971456162631512,0.00465845363214612,0.6039041876792908,-0.2615877687931061,-2.3752024173736572,0.7097660303115845,-0.14094023406505585,-1.859175443649292,52452.0,53821.0,52105.0,53408.0,-0.29999491024331576,-0.5196181808098181,0.5
2.193,TAKEOFF,intermittent,1.0,0.591412365436554,0.010602869093418121,-0.0006507637444883585,-0.01625336892902851,0.015157563611865044,-0.0025350984651595354,0.1629655361175537,0.27814868092536926,6.9839301109313965,-1.0818324089050293,-0.21281513571739197,-0.3131467401981354,54445.0,49107.0,54674.0,50669.0,0.6,0.0,0.5,-0.46043702960014343,0.5605525374412537,0.004877992905676365,0.016476746648550034,-0.01546008512377739,-0.003818672616034746,0.4543493986129761,-1.367759108543396,2.473327398300171,-0.3889061510562897,-0.9108473062515259,1.8087228536605835,54373.0,52154.0,53696.0,53016.0,-0.3000025448675481,0.51961377298239,0.5,-0.4313322901725769,-0.618253231048584,0.005798907484859228,-0.0017445961711928248,-0.000809750403277576,0.005035664886236191,0.6086716055870056,-0.25898218154907227,-2.3939037322998047,-0.37396615743637085,-0.5496629476547241,1.5260956287384033,55245.0,54919.0,54091.0,57462.0,-0.29999491024331576,-0.5196181808098181,0.5
2.213,TAKEOFF,intermittent,1.0,0.591412365436554,0.010602869093418121,-0.0006507637444883585,-0.0022257445380091667,0.016160964965820312,0.000378800235921517,0.12768763303756714,0.27344053983688354,7.034754753112793,-2.8847532272338867,-0.8015605211257935,0.5910817980766296,54465.0,51038.0,56301.0,50437.0,0.6,0.0,0.5,-0.46043702960014343,0.5605525374412537,0.004877992905676365,0.002346375724300742,-0.007422680500894785,-0.0009581207996234298,0.3780909478664398,-1.2352107763290405,2.5386743545532227,0.6692697405815125,0.8604118824005127,-5.600284576416016,56435.0,53922.0,53065.0,53994.0,-0.3000025448675481,0.51961377298239,0.5,-0.4313322901725769,-0.618253231048584,0.005798907484859228,-0.0005325567908585072,-0.0039942823350429535,0.005963989067822695,0.6149343252182007,-0.24800844490528107,-2.376183032989502,-0.9104166030883789,1.9119446277618408,-1.1251097917556763,58139.0,58776.0,56071.0,57514.0,-0.29999491024331576,-0.5196181808098181,0.5
2.233,TAKEOFF,intermittent,1.0,0.591412365436554,0.010602869093418121,-0.0006507637444883585,-0.002681624609977007,0.015518917702138424,0.0015376051887869835,0.24115338921546936,0.06480158865451813,6.860397815704346,-7.6640167236328125,-15.786077499389648,-4.8490400314331055,49919.0,53143.0,58220.0,53382.0,0.6,0.0,0.5,-0.46043702960014343,0.5605525374412537,0.004877992905676365,0.006757321301847696,-0.00858602486550808,0.004298827610909939,0.3884771466255188,-1.2428712844848633,2.433398485183716,2.2027647495269775,-1.019088864326477,-6.148459434509277,55820.0,54477.0,53315.0,57033.0,-0.3000025448675481,0.51961377298239,0.5,-0.4313322901725769,-0.618253231048584,0.005798907484859228,-0.0008872068137861788,-0.007214612793177366,0.00737380888313055,0.6230741143226624,-0.2408832609653473,-2.344189405441284,2.4842233657836914,-2.791555404663086,-0.5008749961853027,59113.0,60311.0,57902.0,60246.0,-0.29999491024331576,-0.5196181808098181,0.5
2.253,TAKEOFF,intermittent,1.0,0.591412365436554,0.010602869093418121,-0.0006507637444883585,-0.00298296008259058,0.014788724482059479,0.0021779260132461786,0.24115338921546936,0.06480158865451813,6.860397815704346,-7.6640167236328125,-15.786077499389648,-4.8490400314331055,56901.0,53934.0,53441.0,53048.0,0.6,0.0,0.5,-0.46043702960014343,0.5605525374412537,0.004877992905676365,0.010944724082946777,-0.009794041514396667,0.0007505485555157065,0.3441999852657318,-1.3072654008865356,2.4362618923187256,-5.838822364807129,4.847261428833008,14.229001998901367,59197.0,53174.0,56730.0,53643.0,-0.3000025448675481,0.51961377298239,0.5,-0.4313322901725769,-0.618253231048584,0.005798907484859228,-0.006815152242779732,-0.0015702927485108376,0.004361175000667572,0.5716983079910278,-0.18979966640472412,-2.3729493618011475,0.3207896649837494,-1.401004672050476,9.88882064819336,61169.0,62120.0,60054.0,60248.0,-0.29999491024331576,-0.5196181808098181,0.5
2.273,TAKEOFF,intermittent,1.0,0.5886511206626892,0.007818879559636116,-0.0008470205357298255,-0.010201926343142986,-0.005735695827752352,0.00791376456618309,0.12779554724693298,0.45019349455833435,6.750908374786377,20.097293853759766,17.58974266052246,-34.22004318237305,54355.0,55496.0,49575.0,58528.0,0.6,0.0,0.5,-0.4614758789539337,0.5620547533035278,0.0048639350570738316,0.019649647176265717,-0.006580146495252848,0.001175574492663145,0.28830400109291077,-1.3389443159103394,2.7163126468658447,-5.648839950561523,-2.726916790008545,12.528680801391602,59407.0,52588.0,57699.0,54676.0,-0.3000025448675481,0.51961377298239,0.5,-0.43337830901145935,-0.617412805557251,0.005016488954424858,-0.012115233577787876,0.0015064590843394399,0.0003039144503418356,0.5404279232025146,-0.14945480227470398,-2.2357139587402344,-9.433778762817383,8.258437156677246,3.7358479499816895,61169.0,62120.0,60054.0,60248.0,-0.29999491024331576,-0.5196181808098181,0.5
2.293,TAKEOFF,intermittent,1.0,0.5886511206626892,0.007818879559636116,-0.0008470205357298255,-0.00584823451936245,-0.006587706971913576,0.0029400349594652653,0.4628441035747528,0.11079925298690796,6.095527172088623,-2.467379331588745,-19.481279373168945,-28.83761978149414,53119.0,56032.0,53550.0,57242.0,0.6,0.0,0.5,-0.4614758789539337,0.5620547533035278,0.0048639350570738316,0.024457909166812897,-0.007359557319432497,0.008387017995119095,0.3077879846096039,-1.3202143907546997,2.917269706726074,2.1182503700256348,-7.96021842956543,10.017308235168457,58820.0,55532.0,58198.0,53507.0,-0.3000025448675481,0.51961377298239,0.5,-0.43337830901145935,-0.617412805557251,0.005016488954424858,-0.008140762336552143,-0.0018593661952763796,0.002114655217155814,0.33952364325523376,-0.33296629786491394,-2.119110107421875,-7.807313442230225,5.75155782699585,1.2974122762680054,62812.0,64224.0,61933.0,63019.0,-0.29999491024331576,-0.5196181808098181,0.5
2.313,TAKEOFF,intermittent,1.0,0.5886511206626892,0.007818879559636116,-0.0008470205357298255,-0.004032948520034552,-0.007918731309473515,0.0003517168515827507,0.4700963795185089,0.14664222300052643,5.129154205322266,7.303282737731934,-4.159183979034424,-21.41937828063965,54668.0,56929.0,53698.0,55841.0,0.6,0.0,0.5,-0.4614758789539337,0.5620547533035278,0.0048639350570738316,0.04284017160534859,-0.017453940585255623,0.020163297653198242,0.5577357411384583,-1.139405369758606,3.0082550048828125,21.626956939697266,-13.969791412353516,3.733243465423584,60838.0,56395.0,55045.0,53948.0,-0.3000025448675481,0.51961377298239,0.5,-0.43337830901145935,-0.617412805557251,0.005016488954424858,-0.005243245046585798,-0.002152391942217946,0.004439345560967922,0.2572367489337921,-0.4024756848812103,-2.05043625831604,14.39847469329834,-15.051006317138672,3.1076316833496094,63593.0,65535.0,62320.0,62338.0,-0.29999491024331576,-0.5196181808098181,0.5
2.333,TAKEOFF,intermittent,1.0,0.5886511206626892,0.007818879559636116,-0.0008470205357298255,-0.004529346711933613,-0.0100871492177248,0.014254273846745491,0.8367868065834045,0.1724519431591034,4.553739547729492,53.078617095947266,5.015225887298584,-20.163299560546875,58061.0,58383.0,50062.0,54317.0,0.6,0.0,0.5,-0.4614758789539337,0.5620547533035278,0.0048639350570738316,0.03177940100431442,-0.010440799407660961,0.05935676768422127,0.7658634185791016,-0.9355026483535767,3.044243097305298,42.82667541503906,-9.034122467041016,-0.8990371227264404,58707.0,58830.0,56326.0,51736.0,-0.3000025448675481,0.51961377298239,0.5,-0.43337830901145935,-0.617412805557251,0.005016488954424858,-0.0027838516980409622,-0.0029291831888258457,0.005794185679405928,0.580152690410614,-0.11296314746141434,-1.9867589473724365,19.180185317993164,-13.420384407043457,-0.7623240351676941,64738.0,64485.0,61541.0,65535.0,-0.29999491024331576,-0.5196181808098181,0.5
2.353,TAKEOFF,intermittent,1.0,0.5886511206626892,0.007818879559636116,-0.0008470205357298255,-0.0045304251834750175,-0.011268830858170986,0.027523228898644447,0.8367868065834045,0.1724519431591034,4.553739547729492,53.078617095947266,5.015225887298584,-20.163299560546875,57601.0,60666.0,49860.0,52273.0,0.6,0.0,0.5,-0.4614758789539337,0.5620547533035278,0.0048639350570738316,0.03777017444372177,-0.018132245168089867,0.1093510091304779,1.5925774574279785,-0.740397572517395,2.9864394664764404,25.92551040649414,-28.795207977294922,-3.4413833618164062,57842.0,58297.0,55713.0,52546.0,-0.3000025448675481,0.51961377298239,0.5,-0.43337830901145935,-0.617412805557251,0.005016488954424858,-0.012512828223407269,-0.00023957755183801055,0.021568886935710907,0.8348873257637024,0.031074464321136475,-2.0717666149139404,10.503186225891113,10.10237979888916,-6.064662933349609,62971.0,65535.0,60433.0,61503.0,-0.29999491024331576,-0.5196181808098181,0.5
2.373,TAKEOFF,intermittent,1.0,0.5932977199554443,0.006502100266516209,-0.001517332624644041,-0.0045713274739682674,-0.013410836458206177,0.041750699281692505,1.7617543935775757,0.042366575449705124,4.083513259887695,79.10823059082031,-12.259302139282227,-26.438777923583984,56746.0,62218.0,49206.0,51144.0,0.6,0.0,0.5,-0.4613862633705139,0.5633870363235474,0.010388237424194813,0.03303319215774536,-0.022222725674510002,0.16377951204776764,2.0974905490875244,-0.1334022730588913,2.945234775543213,-1.3771253824234009,-24.896259307861328,-4.672916889190674,55521.0,55280.0,57681.0,55217.0,-0.3000025448675481,0.51961377298239,0.5,-0.4332781434059143,-0.6176072955131531,0.005719187669456005,-0.003383144037798047,-0.010010406374931335,0.05154832825064659,1.1702215671539307,-0.16220246255397797,-2.157553195953369,19.42277717590332,2.45979642868042,-3.4342029094696045,63507.0,65535.0,59979.0,61460.0,-0.29999491024331576,-0.5196181808098181,0.5
2.394,TAKEOFF,intermittent,1.0,0.5932977199554443,0.006502100266516209,-0.001517332624644041,-0.010485182516276836,-0.034533023834228516,0.08836455643177032,4.717316150665283,0.6642367839813232,3.079101085662842,72.78053283691406,-33.633323669433594,-14.72904109954834,57922.0,62817.0,48893.0,47916.0,0.6,0.0,0.5,-0.4613862633705139,0.5633870363235474,0.010388237424194813,0.03256796672940254,-0.03088665008544922,0.21947719156742096,2.0849342346191406,0.3748624920845032,2.841968536376953,-25.556854248046875,-15.443785667419434,-2.429324150085449,55328.0,54432.0,56495.0,55492.0,-0.3000025448675481,0.51961377298239,0.5,-0.4332781434059143,-0.6176072955131531,0.005719187669456005,-0.0031395177356898785,-0.012490267865359783,0.07108614593744278,1.5860408544540405,-0.15428398549556732,-2.2165656089782715,25.601566314697266,-2.2020480632781982,-1.4596140384674072,64099.0,65535.0,58322.0,60171.0,-0.29999491024331576,-0.5196181808098181,0.5
2.413,TAKEOFF,intermittent,1.0,0.5932977199554443,0.006502100266516209,-0.001517332624644041,-0.01626463606953621,-0.04763731360435486,0.12151689827442169,4.717316150665283,0.6642367839813232,3.079101085662842,72.78053283691406,-33.633323669433594,-14.72904109954834,54639.0,61289.0,53039.0,49097.0,0.6,0.0,0.5,-0.4613862633705139,0.5633870363235474,0.010388237424194813,0.03168315067887306,-0.040718261152505875,0.27698734402656555,1.6076130867004395,0.6757981181144714,2.7881453037261963,-22.158451080322266,-11.667287826538086,-5.567393779754639,55542.0,54897.0,54459.0,54455.0,-0.3000025448675481,0.51961377298239,0.5,-0.4332781434059143,-0.6176072955131531,0.005719187669456005,0.014870697632431984,-0.03456917777657509,0.1227751225233078,2.2088749408721924,-0.24759353697299957,-2.21157169342041,15.384531021118164,-7.507538318634033,3.4530272483825684,63034.0,65535.0,61439.0,60882.0,-0.29999491024331576,-0.5196181808098181,0.5
2.433,TAKEOFF,intermittent,1.0,0.5932977199554443,0.006502100266516209,-0.001517332624644041,-0.013162241317331791,-0.07441398501396179,0.15349064767360687,6.524728775024414,1.6346265077590942,2.5449438095092773,26.745864868164062,-46.47829818725586,-9.059331893920898,54477.0,59244.0,53434.0,50684.0,0.6,0.0,0.5,-0.4613862633705139,0.5633870363235474,0.010388237424194813,0.01677415706217289,-0.03665157034993172,0.3418254852294922,1.1766527891159058,0.8430795669555664,2.684112548828125,1.6057590246200562,-19.82555389404297,-6.83025598526001,54244.0,56564.0,54667.0,49519.0,-0.3000025448675481,0.51961377298239,0.5,-0.4332781434059143,-0.6176072955131531,0.005719187669456005,0.015583324246108532,-0.04367436096072197,0.17143984138965607,2.3399524688720703,-0.04756542667746544,-2.1229286193847656,-17.796772003173828,-27.179462432861328,6.982470512390137,59481.0,62839.0,64302.0,62792.0,-0.29999491024331576,-0.5196181808098181,0.5
2.453,TAKEOFF,intermittent,1.0,0.5932977199554443,0.006502100266516209,-0.001517332624644041,-0.014302593655884266,-0.08640458434820175,0.16944555938243866,6.4111809730529785,2.8442156314849854,2.240274667739868,-42.467079162597656,-17.99854278564453,-2.6111912727355957,54619.0,57184.0,55300.0,49979.0,0.6,0.0,0.5,-0.4613862633705139,0.5633870363235474,0.010388237424194813,0.011436599306762218,-0.04164932295680046,0.3986642062664032,1.0874813795089722,1.322106122970581,2.5997843742370605,9.155669212341309,-33.64495086669922,-6.034673690795898,53687.0,57061.0,54142.0,47730.0,-0.3000025448675481,0.51961377298239,0.5,-0.4332781434059143,-0.6176072955131531,0.005719187669456005,0.029521111398935318,-0.06616578996181488,0.21461929380893707,1.8738900423049927,0.42000317573547363,-2.0208778381347656,-59.88773727416992,-26.04938316345215,5.528652667999268,57061.0,61724.0,64639.0,63112.0,-0.29999491024331576,-0.5196181808098181,0.5
2.473,TAKEOFF,intermittent,1.0,0.5883094072341919,0.007177273277193308,0.012114697135984898,-0.031103625893592834,-0.104825958609581,0.19476857781410217,5.4889068603515625,3.300868511199951,2.1925814151763916,-66.03099060058594,-16.10160255432129,0.10626892745494843,52680.0,55784.0,56791.0,51177.0,0.6,0.0,0.5,-0.4613901972770691,0.5614453554153442,0.04203054681420326,0.004370417445898056,-0.046786852180957794,0.44691002368927,1.3000249862670898,1.9792550802230835,2.4294521808624268,8.18609619140625,-33.999332427978516,-6.307376384735107,51357.0,56761.0,53747.0,48099.0,-0.3000025448675481,0.51961377298239,0.5,-0.42537587881088257,-0.6256529092788696,0.023837080225348473,0.03131329268217087,-0.07213309407234192,0.27865898609161377,0.6490732431411743,0.8787356615066528,-1.9493921995162964,-54.53654479980469,-19.55616569519043,5.648190021514893,59457.0,61644.0,61444.0,60692.0,-0.29999491024331576,-0.5196181808098181,0.5
2.493,TAKEOFF,intermittent,1.0,0.5883094072341919,0.007177273277193308,0.012114697135984898,-0.04939733073115349,-0.12103667855262756,0.2171030044555664,4.146204948425293,3.688847064971924,2.2174482345581055,-54.26442337036133,-22.33564567565918,2.42699933052063,52787.0,57114.0,56674.0,48520.0,0.6,0.0,0.5,-0.4613901972770691,0.5614453554153442,0.04203054681420326,-0.0004386214422993362,-0.057618673890829086,0.4832773208618164,1.5034440755844116,2.6154446601867676,2.292959690093994,2.8096203804016113,-28.063283920288086,-5.401691913604736,52170.0,55256.0,51948.0,48490.0,-0.3000025448675481,0.51961377298239,0.5,-0.42537587881088257,-0.6256529092788696,0.023837080225348473,0.029992960393428802,-0.07670770585536957,0.3367634415626526,-0.27569779753685,1.1884009838104248,-1.8149515390396118,-27.024412155151367,-15.810271263122559,6.694798469543457,57782.0,61567.0,61301.0,58816.0,-0.29999491024331576,-0.5196181808098181,0.5
2.513,TAKEOFF,intermittent,1.0,0.5883094072341919,0.007177273277193308,0.012114697135984898,-0.084793820977211,-0.14321467280387878,0.24522516131401062,4.146204948425293,3.688847064971924,2.2174482345581055,-54.26442337036133,-22.33564567565918,2.42699933052063,52933.0,56892.0,56058.0,48206.0,0.6,0.0,0.5,-0.4613901972770691,0.5614453554153442,0.04203054681420326,-0.012289679609239101,-0.0641925036907196,0.5131208300590515,1.554976224899292,3.1469528675079346,2.172159194946289,-7.570789813995361,-5.283906936645508,-7.491889476776123,51270.0,53769.0,51159.0,49704.0,-0.3000025448675481,0.51961377298239,0.5,-0.42537587881088257,-0.6256529092788696,0.023837080225348473,-0.0066636698320508,-0.04694078490138054,0.3834645748138428,-0.9534196257591248,1.7631155252456665,-1.6696105003356934,-11.960546493530273,-21.241531372070312,8.085628509521484,57270.0,61854.0,60514.0,56351.0,-0.29999491024331576,-0.5196181808098181,0.5
2.533,TAKEOFF,intermittent,1.0,0.5883094072341919,0.007177273277193308,0.012114697135984898,-0.09250520914793015,-0.16533665359020233,0.28009724617004395,2.2361621856689453,4.303163051605225,2.2621560096740723,-40.246944427490234,2.218991279602051,2.7568247318267822,52495.0,56130.0,55779.0,48427.0,0.6,0.0,0.5,-0.4613901972770691,0.5614453554153442,0.04203054681420326,-0.045037731528282166,-0.05722988024353981,0.5479918122291565,1.2879793643951416,3.4405345916748047,2.057644844055176,-12.506967544555664,13.231884956359863,-9.228005409240723,50943.0,52715.0,49349.0,50288.0,-0.3000025448675481,0.51961377298239,0.5,-0.42537587881088257,-0.6256529092788696,0.023837080225348473,-0.022875143215060234,-0.03452293202280998,0.447467565536499,-1.1785650253295898,2.2102363109588623,-1.498679518699646,7.362375259399414,-17.0538387298584,9.96829605102539,58196.0,60838.0,58096.0,55098.0,-0.29999491024331576,-0.5196181808098181,0.5
2.553,TAKEOFF,intermittent,1.0,0.5883094072341919,0.007177273277193308,0.012114697135984898,-0.10815663635730743,-0.17506490647792816,0.297585666179657,1.4343161582946777,4.199260234832764,2.325007677078247,-35.914894104003906,20.328683853149414,3.7816977500915527,53259.0,55728.0,54935.0,48274.0,0.6,0.0,0.5,-0.4613901972770691,0.5614453554153442,0.04203054681420326,-0.057046618312597275,-0.06173853203654289,0.5646457076072693,1.0569665431976318,3.1915979385375977,1.873159408569336,-13.824934959411621,33.217926025390625,-9.292229652404785,51278.0,50736.0,48041.0,51264.0,-0.3000025448675481,0.51961377298239,0.5,-0.42537587881088257,-0.6256529092788696,0.023837080225348473,-0.011583677493035793,-0.040031835436820984,0.4740000367164612,-0.9131598472595215,2.328230857849121,-1.2554470300674438,23.13678550720215,-2.9357450008392334,9.040266036987305,59758.0,59626.0,54423.0,54489.0,-0.29999491024331576,-0.5196181808098181,0.5
