timestamp_sec,flight_state,fault_type,fault_motor_health,cf1_X,cf1_Y,cf1_Z,cf1_VelX,cf1_VelY,cf1_VelZ,cf1_Roll,cf1_Pitch,cf1_Yaw,cf1_GyroX,cf1_GyroY,cf1_GyroZ,cf1_Motor1,cf1_Motor2,cf1_Motor3,cf1_Motor4,cf1_targ_x,cf1_targ_y,cf1_targ_z,cf2_X,cf2_Y,cf2_Z,cf2_VelX,cf2_VelY,cf2_VelZ,cf2_Roll,cf2_Pitch,cf2_Yaw,cf2_GyroX,cf2_GyroY,cf2_GyroZ,cf2_Motor1,cf2_Motor2,cf2_Motor3,cf2_Motor4,cf2_targ_x,cf2_targ_y,cf2_targ_z,cf3_X,cf3_Y,cf3_Z,cf3_VelX,cf3_VelY,cf3_VelZ,cf3_Roll,cf3_Pitch,cf3_Yaw,cf3_GyroX,cf3_GyroY,cf3_GyroZ,cf3_Motor1,cf3_Motor2,cf3_Motor3,cf3_Motor4,cf3_targ_x,cf3_targ_y,cf3_targ_z
0.003,TAKEOFF,incipient,1.0,0.6070210337638855,0.012325135059654713,-0.0018344544805586338,0.0,0.0,0.0,0.0,0.0,0.0,0.0,0.0,0.0,0.0,0.0,0.0,0.0,0.6,0.0,0.5,-0.40282657742500305,0.5838916897773743,0.004223090596497059,0.0,0.0,0.0,0.0,0.0,0.0,0.0,0.0,0.0,0.0,0.0,0.0,0.0,-0.3000025448675481,0.51961377298239,0.5,-0.3892747163772583,-0.5661638975143433,0.004781849216669798,0.0,0.0,0.0,0.0,0.0,0.0,0.0,0.0,0.0,0.0,0.0,0.0,0.0,-0.29999491024331576,-0.5196181808098181,0.5
0.02,TAKEOFF,incipient,1.0,0.6070210337638855,0.012325135059654713,-0.0018344544805586338,0.008132795803248882,0.009340199641883373,0.004706892650574446,0.35682329535484314,0.3368612229824066,3.1887402534484863,-0.05811949446797371,-0.02925005555152893,-0.08580071479082108,0.0,0.0,0.0,0.0,0.6,0.0,0.5,-0.40282657742500305,0.5838916897773743,0.004223090596497059,-0.004412665963172913,0.0028507050592452288,-0.0015467907069250941,0.24416668713092804,-1.2973819971084595,0.7532000541687012,-0.03883693739771843,0.2179466187953949,-0.12797680497169495,0.0,0.0,0.0,0.0,-0.3000025448675481,0.51961377298239,0.5,-0.3892747163772583,-0.5661638975143433,0.004781849216669798,-0.01175745390355587,0.007712099701166153,-0.0005886715953238308,0.5207935571670532,-0.09794372320175171,0.7500919699668884,-0.0300873015075922,0.32409486174583435,-0.052770741283893585,0.0,0.0,0.0,0.0,-0.29999491024331576,-0.5196181808098181,0.5
0.04,TAKEOFF,incipient,1.0,0.6070210337638855,0.012325135059654713,-0.0018344544805586338,0.008132795803248882,0.009340199641883373,0.004706892650574446,0.20789951086044312,0.39312243461608887,3.258369207382202,-0.012655232101678848,-0.10567796975374222,0.013070758432149887,40626.0,37859.0,41112.0,37871.0,0.6,0.0,0.5,-0.40283098816871643,0.5856301188468933,0.0034686687868088484,0.0031920750625431538,-0.0010961286025121808,-0.007719905581325293,0.2778848707675934,-1.3612635135650635,0.7254156470298767,-0.15153768658638,-0.02999839186668396,0.21187755465507507,0.0,0.0,0.0,0.0,-0.3000025448675481,0.51961377298239,0.5,-0.3892747163772583,-0.5661638975143433,0.004781849216669798,-0.011331621557474136,0.00694024283438921,-0.0033193218987435102,0.526861846446991,-0.10341250151395798,0.7331193089485168,-0.12814961373806,0.07984016835689545,0.072358638048172,40766.0,40091.0,40252.0,39667.0,-0.29999491024331576,-0.5196181808098181,0.5
0.062,TAKEOFF,incipient,1.0,0.6070210337638855,0.012325135059654713,-0.0018344544805586338,0.02189517579972744,0.020006457343697548,-0.0015995774883776903,0.2219689041376114,0.2447933554649353,3.1999149322509766,-0.2957209646701813,0.25847095251083374,-0.48794588446617126,41188.0,38523.0,41432.0,38429.0,0.6,0.0,0.5,-0.40283098816871643,0.5856301188468933,0.0034686687868088484,0.007157530169934034,-0.003077781992033124,-0.01106247864663601,0.2941495180130005,-1.3917661905288696,0.7036522030830383,0.25714701414108276,0.12941007316112518,-1.5876810550689697,41577.0,39446.0,39885.0,40597.0,-0.3000025448675481,0.51961377298239,0.5,-0.3892747163772583,-0.5661638975143433,0.004781849216669798,-0.011231835931539536,0.007004658691585064,-0.0033163728658109903,0.6124541759490967,-0.23240746557712555,0.7751234769821167,0.025161877274513245,-0.12464110553264618,0.2597280740737915,41147.0,40827.0,40096.0,40700.0,-0.29999491024331576,-0.5196181808098181,0.5
0.08,TAKEOFF,incipient,1.0,0.6061690449714661,0.01649932749569416,-0.0008246097713708878,0.02189517579972744,0.020006457343697548,-0.0015995774883776903,0.1215595230460167,0.2774774730205536,3.2621779441833496,1.9155974388122559,1.7770886421203613,3.82287859916687,40116.0,39405.0,43910.0,39530.0,0.6,0.0,0.5,-0.40283098816871643,0.5856301188468933,0.0034686687868088484,0.00975045096129179,-0.0034551124554127455,-0.010866706259548664,0.31872498989105225,-1.328780174255371,0.6676506996154785,-1.2442203760147095,1.1250742673873901,-1.331593632698059,43511.0,39928.0,39070.0,42598.0,-0.3000025448675481,0.51961377298239,0.5,-0.38636183738708496,-0.5670246481895447,0.005141591187566519,-0.0033795484341681004,0.0021403077989816666,-0.0003571086563169956,0.5514512062072754,-0.16410067677497864,0.7603316903114319,-0.14875581860542297,-0.4363955855369568,-4.217425346374512,44607.0,41118.0,40426.0,40883.0,-0.29999491024331576,-0.5196181808098181,0.5
0.1,TAKEOFF,incipient,1.0,0.6061690449714661,0.01649932749569416,-0.0008246097713708878,0.02097235433757305,0.01953333616256714,-0.0021582446061074734,0.08565039187669754,0.23292557895183563,3.2814085483551025,-0.6434547305107117,1.5892329216003418,-1.162315845489502,42857.0,40256.0,43095.0,39567.0,0.6,0.0,0.5,-0.40283098816871643,0.5856301188468933,0.0034686687868088484,0.00938959326595068,-0.007996824570000172,-0.007434097118675709,0.3272387385368347,-1.3194352388381958,0.6371318101882935,0.7981752753257751,-2.4821560382843018,2.265669822692871,44046.0,42188.0,41086.0,41016.0,-0.3000025448675481,0.51961377298239,0.5,-0.38636183738708496,-0.5670246481895447,0.005141591187566519,-0.002191721461713314,-0.0016201450489461422,-0.0003126632946077734,0.548668622970581,-0.16717828810214996,0.7584614157676697,0.6300443410873413,-0.14844363927841187,-0.8419244289398193,42830.0,42417.0,43509.0,42564.0,-0.29999491024331576,-0.5196181808098181,0.5
0.121,TAKEOFF,incipient,1.0,0.6061690449714661,0.01649932749569416,-0.0008246097713708878,0.026528384536504745,0.02427743747830391,-0.003347390331327915,0.048351485282182693,0.24298402667045593,3.2957160472869873,3.554074764251709,6.581030368804932,5.76848840713501,44467.0,39925.0,43924.0,39347.0,0.6,0.0,0.5,-0.40283098816871643,0.5856301188468933,0.0034686687868088484,0.005980462767183781,-0.003937369212508202,0.000612429401371628,0.2815476953983307,-1.2926149368286133,0.6571637988090515,-2.9492876529693604,3.7412290573120117,-0.41993260383605957,43380.0,45383.0,42609.0,39332.0,-0.3000025448675481,0.51961377298239,0.5,-0.38636183738708496,-0.5670246481895447,0.005141591187566519,-0.002191721461713314,-0.0016201450489461422,-0.0003126632946077734,0.5454838871955872,-0.16203302145004272,0.7545943260192871,-1.0932023525238037,-1.1118857860565186,1.6250696182250977,44978.0,44312.0,42866.0,42387.0,-0.29999491024331576,-0.5196181808098181,0.5
0.141,TAKEOFF,incipient,1.0,0.6061690449714661,0.01649932749569416,-0.0008246097713708878,0.02471229061484337,0.026623491197824478,0.00257414230145514,0.05381683632731438,0.2019115686416626,3.435072183609009,9.599152565002441,7.258239269256592,-5.444169044494629,42828.0,40396.0,43740.0,42744.0,0.6,0.0,0.5,-0.4025133550167084,0.5852797627449036,0.003078602720052004,0.008098991587758064,-0.001916930079460144,0.0033851368352770805,0.25305479764938354,-1.2849609851837158,0.6667970418930054,0.7787498831748962,-0.7151604294776917,-11.61074447631836,45155.0,40329.0,41354.0,45906.0,-0.3000025448675481,0.51961377298239,0.5,-0.38636183738708496,-0.5670246481895447,0.005141591187566519,-0.0016152552561834455,-0.00347549794241786,-0.001435066806152463,0.5546666383743286,-0.16413721442222595,0.7508066892623901,1.2983466386795044,0.6645371317863464,-1.8438546657562256,44781.0,44751.0,43631.0,44261.0,-0.29999491024331576,-0.5196181808098181,0.5
0.163,TAKEOFF,incipient,1.0,0.6061690449714661,0.01649932749569416,-0.0008246097713708878,0.02471229061484337,0.026623491197824478,0.00257414230145514,0.0621478334069252,0.21098525822162628,3.150599956512451,-10.732752799987793,-7.406558990478516,-15.773656845092773,43001.0,41636.0,43735.0,42744.0,0.6,0.0,0.5,-0.4025133550167084,0.5852797627449036,0.003078602720052004,0.015892215073108673,-0.004345405846834183,0.005420064087957144,0.290865957736969,-1.3154903650283813,0.3152760863304138,5.373578071594238,-4.927489280700684,-29.19947052001953,44292.0,45463.0,39560.0,45160.0,-0.3000025448675481,0.51961377298239,0.5,-0.38636183738708496,-0.5670246481895447,0.005141591187566519,-0.004146447405219078,-0.00012856165994890034,-0.00042780055082403123,0.5726783871650696,-0.2618435323238373,0.7050583958625793,-3.0667247772216797,-2.2904465198516846,7.483536720275879,47408.0,42706.0,45784.0,43429.0,-0.29999491024331576,-0.5196181808098181,0.5
0.18,TAKEOFF,incipient,1.0,0.6093174815177917,0.020750297233462334,-0.0019401051104068756,0.009405224584043026,0.033389125019311905,-0.019808290526270866,-0.056728921830654144,0.341015100479126,3.0936150550842285,-5.048552513122559,9.737849235534668,-4.867132663726807,47078.0,46951.0,40134.0,37392.0,0.6,0.0,0.5,-0.4025133550167084,0.5852797627449036,0.003078602720052004,0.009217005223035812,0.0032412209548056126,0.009912644512951374,0.21975193917751312,-1.2068288326263428,-0.23303543031215668,-8.307671546936035,6.606823921203613,-37.4269905090332,41349.0,44642.0,42119.0,47853.0,-0.3000025448675481,0.51961377298239,0.5,-0.38575002551078796,-0.5672836899757385,0.0049522616900503635,0.011021271347999573,-0.008362236432731152,-0.003981692250818014,0.5880035161972046,-0.31565603613853455,1.0872927904129028,-0.32414042949676514,0.24053360521793365,10.209725379943848,48646.0,46093.0,42241.0,44493.0,-0.29999491024331576,-0.5196181808098181,0.5
0.2,TAKEOFF,incipient,1.0,0.6093174815177917,0.020750297233462334,-0.0019401051104068756,-0.03248884156346321,0.005666204262524843,0.005928399506956339,-0.00875071156769991,0.30502450466156006,2.980665445327759,-4.066832065582275,-8.48694896697998,-19.34685516357422,43134.0,41833.0,44120.0,46195.0,0.6,0.0,0.5,-0.4025133550167084,0.5852797627449036,0.003078602720052004,0.01349578332155943,0.0025589438155293465,0.011670326814055443,0.2025604248046875,-1.194701075553894,-0.9912642240524292,-3.765619993209839,4.540696144104004,-6.052055358886719,41683.0,46779.0,40031.0,48087.0,-0.3000025448675481,0.51961377298239,0.5,-0.38575002551078796,-0.5672836899757385,0.0049522616900503635,0.007510771043598652,-0.01248332392424345,-0.0007226106827147305,0.5889554023742676,-0.2176910638809204,0.9558370113372803,-1.0348834991455078,-6.01064920425415,-33.20582580566406,42551.0,48947.0,42720.0,48457.0,-0.29999491024331576,-0.5196181808098181,0.5
0.22,TAKEOFF,incipient,1.0,0.6093174815177917,0.020750297233462334,-0.0019401051104068756,-0.03248884156346321,0.005666204262524843,0.005928399506956339,0.14749489724636078,0.6008452773094177,2.641878843307495,4.244897365570068,2.776151418685913,-25.906749725341797,40632.0,45213.0,44763.0,43860.0,0.6,0.0,0.5,-0.4025133550167084,0.5852797627449036,0.003078602720052004,0.009206454269587994,0.0107596255838871,0.021607093513011932,0.0790010392665863,-1.176770806312561,-1.0162041187286377,0.1791733056306839,1.0674710273742676,-3.411576986312866,45856.0,44497.0,44040.0,45365.0,-0.3000025448675481,0.51961377298239,0.5,-0.38575002551078796,-0.5672836899757385,0.0049522616900503635,0.008820823393762112,-0.016388079151511192,-0.00041219103150069714,0.5662481188774109,-0.15060819685459137,0.06734370440244675,-0.9817692041397095,-2.2790112495422363,-50.06766891479492,40982.0,48576.0,43395.0,50650.0,-0.29999491024331576,-0.5196181808098181,0.5
0.24,TAKEOFF,incipient,1.0,0.6093174815177917,0.020750297233462334,-0.0019401051104068756,-0.02831331454217434,0.006302094552665949,-0.002966575790196657,0.17234206199645996,0.554593026638031,2.083401679992676,-8.314313888549805,-3.9836487770080566,-33.451480865478516,41949.0,45576.0,43282.0,45213.0,0.6,0.0,0.5,-0.40404367446899414,0.5882155895233154,0.005967496428638697,0.010757215321063995,0.014083204790949821,0.027700910344719887,0.06445441395044327,-1.1443501710891724,-1.0902230739593506,-0.9601049423217773,-0.023249123245477676,-8.142512321472168,43637.0,45221.0,43624.0,46549.0,-0.3000025448675481,0.51961377298239,0.5,-0.38575002551078796,-0.5672836899757385,0.0049522616900503635,0.008820823393762112,-0.016388079151511192,-0.00041219103150069714,0.5512760877609253,-0.1485643982887268,-0.802870512008667,9.43238639831543,1.077756643295288,-32.43003845214844,45805.0,47545.0,40991.0,50904.0,-0.29999491024331576,-0.5196181808098181,0.5
0.26,TAKEOFF,incipient,1.0,0.6093174815177917,0.020750297233462334,-0.0019401051104068756,-0.02831331454217434,0.006302094552665949,-0.002966575790196657,0.05084022879600525,0.6189503073692322,1.4251089096069336,9.250788688659668,5.136457920074463,-30.182788848876953,42307.0,44252.0,42856.0,47805.0,0.6,0.0,0.5,-0.40404367446899414,0.5882155895233154,0.005967496428638697,0.015647614374756813,0.014044689945876598,0.023584995418787003,0.04385562613606453,-1.1507093906402588,-1.2213215827941895,2.62389874458313,-3.606433391571045,7.2449049949646,45262.0,44421.0,43613.0,46703.0,-0.3000025448675481,0.51961377298239,0.5,-0.38575002551078796,-0.5672836899757385,0.0049522616900503635,0.009245280176401138,-0.018259840086102486,0.0006608058465644717,0.642769992351532,-0.2327992469072342,-1.429771900177002,-5.760453224182129,5.205502510070801,-30.105010986328125,42992.0,54782.0,44319.0,43295.0,-0.29999491024331576,-0.5196181808098181,0.5
0.28,TAKEOFF,incipient,1.0,0.6075831651687622,0.016460880637168884,-0.0006224238313734531,-0.02744222618639469,0.004681404680013657,-0.003798896912485361,0.18706871569156647,0.4638037085533142,0.7373268008232117,6.737896919250488,5.6341166496276855,-35.589515686035156,37894.0,47435.0,46331.0,46016.0,0.6,0.0,0.5,-0.40404367446899414,0.5882155895233154,0.005967496428638697,0.01970694772899151,0.014725157991051674,0.022965045645833015,0.09522440284490585,-1.0819356441497803,-0.9854012727737427,-0.6719256639480591,-5.908201694488525,15.520235061645508,48275.0,42347.0,44288.0,46085.0,-0.3000025448675481,0.51961377298239,0.5,-0.3803330957889557,-0.5722188949584961,0.005619557574391365,0.03610910102725029,-0.040038496255874634,0.005693552549928427,0.7030223608016968,-0.3325580358505249,-2.0378506183624268,-4.874393939971924,-5.236395835876465,-18.128585815429688,54215.0,47506.0,31716.0,49742.0,-0.29999491024331576,-0.5196181808098181,0.5
0.3,TAKEOFF,incipient,1.0,0.6075831651687622,0.016460880637168884,-0.0006224238313734531,-0.02744222618639469,0.004681404680013657,-0.003798896912485361,0.2735893428325653,0.37659189105033875,0.043779924511909485,0.6861262917518616,-1.888422966003418,-20.517370223999023,39797.0,46155.0,47298.0,45990.0,0.6,0.0,0.5,-0.40404367446899414,0.5882155895233154,0.005967496428638697,0.023352721706032753,0.01432973425835371,0.023264901712536812,0.1446489840745926,-0.9919141530990601,-0.6723573207855225,0.6415495276451111,-2.354558229446411,16.283517837524414,45470.0,43975.0,47431.0,46140.0,-0.3000025448675481,0.51961377298239,0.5,-0.3803330957889557,-0.5722188949584961,0.005619557574391365,0.03894812613725662,-0.05457547679543495,0.016081800684332848,0.8101750016212463,-0.44098755717277527,-2.2146191596984863,-5.808408260345459,-6.375771522521973,4.08681058883667,46124.0,47923.0,46563.0,48948.0,-0.29999491024331576,-0.5196181808098181,0.5
0.32,TAKEOFF,incipient,1.0,0.6075831651687622,0.016460880637168884,-0.0006224238313734531,-0.04312439635396004,0.002451312495395541,-0.004630379844456911,0.1625007539987564,0.42367103695869446,-0.38638365268707275,0.7833235263824463,5.833199977874756,-12.386307716369629,45319.0,47492.0,43119.0,44937.0,0.6,0.0,0.5,-0.402026891708374,0.5893430709838867,0.006188679952174425,0.026730841025710106,0.013772331178188324,0.024342810735106468,0.20536039769649506,-1.0026906728744507,-0.373638391494751,-1.3277500867843628,5.197230339050293,21.554927825927734,48081.0,43372.0,45528.0,45906.0,-0.3000025448675481,0.51961377298239,0.5,-0.3803330957889557,-0.5722188949584961,0.005619557574391365,0.03894812613725662,-0.05457547679543495,0.016081800684332848,0.7619367837905884,-0.31816309690475464,-2.0847010612487793,6.122675895690918,8.502242088317871,11.104660987854004,49953.0,49326.0,44430.0,45847.0,-0.29999491024331576,-0.5196181808098181,0.5
0.34,TAKEOFF,incipient,1.0,0.6075831651687622,0.016460880637168884,-0.0006224238313734531,-0.04476458579301834,0.0014813620364293456,-0.007490144576877356,0.3061372637748718,0.4667816758155823,-0.6319848895072937,-7.967950344085693,-6.38370418548584,-13.577756881713867,42459.0,48453.0,46111.0,44829.0,0.6,0.0,0.5,-0.402026891708374,0.5893430709838867,0.006188679952174425,0.029686646535992622,0.008673799224197865,0.020496796816587448,0.18852092325687408,-1.0108071565628052,0.06870510429143906,2.318715810775757,-0.7631499767303467,15.51533317565918,49150.0,44990.0,44907.0,46150.0,-0.3000025448675481,0.51961377298239,0.5,-0.3803330957889557,-0.5722188949584961,0.005619557574391365,0.04221897944808006,-0.05796264484524727,0.013367561623454094,0.8739856481552124,-0.4443433880805969,-1.8220493793487549,4.140860080718994,3.5537610054016113,8.54942798614502,49861.0,47691.0,45019.0,48496.0,-0.29999491024331576,-0.5196181808098181,0.5
0.36,TAKEOFF,incipient,1.0,0.6075831651687622,0.016460880637168884,-0.0006224238313734531,-0.046856340020895004,0.0008716361480765045,-0.0033663492649793625,0.22266452014446259,0.5640450119972229,-0.9088611006736755,-7.114418983459473,-9.120753288269043,-8.586247444152832,43877.0,47576.0,46182.0,45769.0,0.6,0.0,0.5,-0.402026891708374,0.5893430709838867,0.006188679952174425,0.0333135649561882,0.007964013144373894,0.022190460935235023,0.27281486988067627,-0.9557439684867859,0.3237982392311096,-5.301036834716797,-0.6415055990219116,5.620314598083496,49150.0,44990.0,44907.0,46150.0,-0.3000025448675481,0.51961377298239,0.5,-0.3803330957889557,-0.5722188949584961,0.005619557574391365,0.014709815382957458,-0.03581582382321358,0.004042344633489847,0.6506038308143616,-0.16917085647583008,-1.6827495098114014,-10.734599113464355,-12.385924339294434,7.463588237762451,52400.0,49917.0,41560.0,48015.0,-0.29999491024331576,-0.5196181808098181,0.5
0.38,TAKEOFF,incipient,1.0,0.6042882204055786,0.014993165619671345,-0.0023819096386432648,-0.026244480162858963,-0.0027654943987727165,-0.014885613694787025,0.13491858541965485,0.5160423517227173,-1.1463899612426758,7.8071818351745605,4.556190490722656,-5.315525531768799,46894.0,45427.0,44080.0,48449.0,0.6,0.0,0.5,-0.402026891708374,0.5893430709838867,0.006188679952174425,0.03445719927549362,0.0010889368131756783,0.01248357817530632,0.28162458539009094,-0.9305797219276428,0.44181185960769653,-0.8963932991027832,3.709351062774658,0.15769773721694946,47672.0,45908.0,46925.0,46460.0,-0.3000025448675481,0.51961377298239,0.5,-0.38177284598350525,-0.5748739838600159,0.005652330815792084,0.012632552534341812,-0.036353349685668945,0.001189214177429676,0.6165643334388733,-0.11876453459262848,-1.5590198040008545,1.2387140989303589,-6.263800144195557,6.400644302368164,49943.0,48650.0,47196.0,48716.0,-0.29999491024331576,-0.5196181808098181,0.5
0.4,TAKEOFF,incipient,1.0,0.6042882204055786,0.014993165619671345,-0.0023819096386432648,-0.027473149821162224,0.001858075731433928,-0.0046029784716665745,0.23026882112026215,0.3339555263519287,-1.306800365447998,3.0028202533721924,3.9480066299438477,2.276097297668457,43819.0,47842.0,48961.0,45853.0,0.6,0.0,0.5,-0.402026891708374,0.5893430709838867,0.006188679952174425,0.06648999452590942,-0.023219918832182884,0.007404854521155357,0.42526504397392273,-1.2056812047958374,0.4319189190864563,8.77236270904541,-8.554913520812988,2.9692533016204834,50781.0,47887.0,43480.0,46314.0,-0.3000025448675481,0.51961377298239,0.5,-0.38177284598350525,-0.5748739838600159,0.005652330815792084,0.022143444046378136,-0.04626452922821045,0.0007690993370488286,0.6335221529006958,-0.10634351521730423,-1.330094814300537,-2.4227805137634277,-3.9683783054351807,18.57149887084961,50609.0,48817.0,48686.0,47692.0,-0.29999491024331576,-0.5196181808098181,0.5
0.42,TAKEOFF,incipient,1.0,0.6042882204055786,0.014993165619671345,-0.0023819096386432648,-0.02926424704492092,0.01075700856745243,-0.0005947360186837614,0.3099670708179474,0.27017590403556824,-1.296751856803894,-6.728031635284424,-10.572402954101562,9.302184104919434,45000.0,46974.0,48849.0,46395.0,0.6,0.0,0.5,-0.402026891708374,0.5893430709838867,0.006188679952174425,0.06173504889011383,-0.022362632676959038,0.0046722982078790665,0.5435824990272522,-1.112601399421692,0.5098668932914734,5.45087194442749,-1.079268455505371,0.3780874013900757,50895.0,41804.0,45683.0,50044.0,-0.3000025448675481,0.51961377298239,0.5,-0.38177284598350525,-0.5748739838600159,0.005652330815792084,0.022143444046378136,-0.04626452922821045,0.0007690993370488286,0.6665776371955872,-0.1720559448003769,-0.9201540946960449,0.06546080112457275,3.8751935958862305,15.926860809326172,51974.0,49924.0,47454.0,47402.0,-0.29999491024331576,-0.5196181808098181,0.5
0.44,TAKEOFF,incipient,1.0,0.6042882204055786,0.014993165619671345,-0.0023819096386432648,-0.03184860199689865,0.016108091920614243,0.010762329213321209,0.07500731945037842,0.48932763934135437,-1.0474132299423218,2.734124183654785,2.400080680847168,8.960429191589355,45935.0,48269.0,48473.0,44917.0,0.6,0.0,0.5,-0.3957769274711609,0.5853143334388733,0.004720494616776705,0.05838209018111229,-0.028852447867393494,0.0064780740067362785,0.7335293292999268,-1.078099250793457,0.47189950942993164,12.690581321716309,-2.5730676651000977,-1.8137325048446655,50966.0,45408.0,45028.0,49872.0,-0.3000025448675481,0.51961377298239,0.5,-0.38177284598350525,-0.5748739838600159,0.005652330815792084,0.019770517945289612,-0.047483231872320175,0.010602219961583614,0.5974555611610413,-0.08491151034832001,-0.7093908190727234,-7.501763343811035,-6.002344131469727,11.876880645751953,54905.0,47818.0,43825.0,49747.0,-0.29999491024331576,-0.5196181808098181,0.5
0.46,TAKEOFF,incipient,1.0,0.6042882204055786,0.014993165619671345,-0.0023819096386432648,-0.03368401154875755,0.015942756086587906,0.008747038431465626,0.05755786597728729,0.5011501312255859,-0.7798510789871216,4.579029083251953,13.223196029663086,7.989843845367432,48564.0,48008.0,46058.0,45537.0,0.6,0.0,0.5,-0.3957769274711609,0.5853143334388733,0.004720494616776705,0.06740577518939972,-0.03387174755334854,0.005075611639767885,0.848311722278595,-0.9733948707580566,0.45781534910202026,-3.0350394248962402,-12.796839714050293,3.48976993560791,49582.0,45777.0,46415.0,49884.0,-0.3000025448675481,0.51961377298239,0.5,-0.38177284598350525,-0.5748739838600159,0.005652330815792084,0.018723689019680023,-0.047320347279310226,0.01755889505147934,0.5260887145996094,-0.1210087463259697,-0.46353375911712646,0.11419139057397842,-11.537155151367188,14.92101001739502,53831.0,49547.0,46569.0,47800.0,-0.29999491024331576,-0.5196181808098181,0.5
0.48,TAKEOFF,incipient,1.0,0.5993025898933411,0.021405253559350967,0.00036796729546040297,-0.03356616571545601,0.019974149763584137,0.016871275380253792,0.1916695237159729,0.29807332158088684,-0.6051779985427856,-1.4503183364868164,-7.893599510192871,9.420292854309082,46854.0,47610.0,48236.0,46835.0,0.6,0.0,0.5,-0.3957769274711609,0.5853143334388733,0.004720494616776705,0.058654431253671646,-0.03243166580796242,0.008252423256635666,0.6476050615310669,-0.5330196619033813,0.5323014259338379,-16.877275466918945,-11.181374549865723,1.5871309041976929,49714.0,46596.0,48833.0,48734.0,-0.3000025448675481,0.51961377298239,0.5,-0.3837110996246338,-0.5753752589225769,0.005841485224664211,-0.001594329602085054,-0.0327613539993763,-0.001132032833993435,0.4907418489456177,-0.0054396954365074635,-0.07523094862699509,2.1807727813720703,-1.3046278953552246,20.835966110229492,52544.0,50384.0,50332.0,47328.0,-0.29999491024331576,-0.5196181808098181,0.5
0.5,TAKEOFF,incipient,1.0,0.5993025898933411,0.021405253559350967,0.00036796729546040297,-0.034587059170007706,0.019136501476168633,0.013656800612807274,0.23725028336048126,0.30513471364974976,-0.3634444773197174,-3.0981762409210205,1.907615303993225,6.774988174438477,44267.0,46497.0,50957.0,47977.0,0.6,0.0,0.5,-0.3957769274711609,0.5853143334388733,0.004720494616776705,0.05742208659648895,-0.03222424164414406,0.011974167078733444,0.5641130208969116,-0.23901373147964478,0.6334136128425598,11.137864112854004,3.2567598819732666,6.89953088760376,52173.0,48800.0,46741.0,47855.0,-0.3000025448675481,0.51961377298239,0.5,-0.3837110996246338,-0.5753752589225769,0.005841485224664211,-0.0017509306780993938,-0.03437640890479088,0.0024843711871653795,0.3965722918510437,0.07796909660100937,0.3377394378185272,-8.475202560424805,-4.434780120849609,23.10313606262207,54683.0,48265.0,48964.0,49506.0,-0.29999491024331576,-0.5196181808098181,0.5
0.52,TAKEOFF,incipient,1.0,0.5993025898933411,0.021405253559350967,0.00036796729546040297,-0.018502939492464066,0.029575761407613754,0.0014257906004786491,0.16277940571308136,0.13268189132213593,-0.2830064296722412,1.1152219772338867,-0.6190438270568848,10.737186431884766,49842.0,48733.0,49262.0,44023.0,0.6,0.0,0.5,-0.39589938521385193,0.5826215744018555,0.006092699710279703,0.05850967392325401,-0.03412063792347908,0.01988392136991024,0.8445771336555481,-0.29249727725982666,0.737787127494812,16.2264347076416,-5.30546760559082,6.620885848999023,52173.0,48800.0,46741.0,47855.0,-0.3000025448675481,0.51961377298239,0.5,-0.3837110996246338,-0.5753752589225769,0.005841485224664211,-0.00194431166164577,-0.03596111759543419,0.008951223455369473,0.1726713925600052,0.0624290406703949,0.771602213382721,-14.996336936950684,-8.028716087341309,20.90460968017578,53788.0,49825.0,50805.0,48171.0,-0.29999491024331576,-0.5196181808098181,0.5
0.54,TAKEOFF,incipient,1.0,0.5993025898933411,0.021405253559350967,0.00036796729546040297,-0.023009618744254112,0.037110451608896255,0.011219105683267117,0.08934423327445984,0.18490338325500488,-0.002707354025915265,-2.435153007507324,-6.868022918701172,16.31472396850586,48453.0,44071.0,52912.0,47116.0,0.6,0.0,0.5,-0.39589938521385193,0.5826215744018555,0.006092699710279703,0.05839485675096512,-0.03819812834262848,0.021659759804606438,1.1773279905319214,-0.0508396215736866,0.8280772566795349,8.837857246398926,-12.49740982055664,6.213212490081787,52340.0,50749.0,46783.0,46541.0,-0.3000025448675481,0.51961377298239,0.5,-0.3837110996246338,-0.5753752589225769,0.005841485224664211,0.02682844176888466,-0.05276459828019142,0.0072860619984567165,0.020931493490934372,-0.023753056302666664,1.252755045890808,-16.06428337097168,-2.069852352142334,19.513120651245117,53712.0,48140.0,51571.0,50651.0,-0.29999491024331576,-0.5196181808098181,0.5
0.56,TAKEOFF,incipient,1.0,0.5993025898933411,0.021405253559350967,0.00036796729546040297,-0.026219097897410393,0.04218928888440132,0.015101540833711624,-0.047728512436151505,0.2602821886539459,0.38505274057388306,2.9726967811584473,0.1442648321390152,16.625791549682617,51894.0,44207.0,50417.0,46885.0,0.6,0.0,0.5,-0.39589938521385193,0.5826215744018555,0.006092699710279703,0.058870185166597366,-0.04208673909306526,0.0279828030616045,1.2954744100570679,0.39027509093284607,0.9592882990837097,-3.518887519836426,-38.57963943481445,6.428208351135254,50896.0,51437.0,49033.0,45154.0,-0.3000025448675481,0.51961377298239,0.5,-0.3837110996246338,-0.5753752589225769,0.005841485224664211,0.011541934683918953,-0.03081507980823517,0.011500440537929535,-0.4327162206172943,-0.091832235455513,1.569758653640747,-25.89832305908203,8.94919204711914,15.060154914855957,53086.0,50368.0,52018.0,49542.0,-0.29999491024331576,-0.5196181808098181,0.5
0.58,TAKEOFF,incipient,1.0,0.6005734205245972,0.02887166291475296,0.0014639454893767834,-0.02689969167113304,0.04223279282450676,0.009374423883855343,-0.03159178048372269,0.22699721157550812,0.759181559085846,2.693448781967163,-1.0348480939865112,11.799066543579102,49114.0,48534.0,52258.0,44655.0,0.6,0.0,0.5,-0.39589938521385193,0.5826215744018555,0.006092699710279703,0.05806587263941765,-0.04654418304562569,0.030950838699936867,1.1783127784729004,1.3365610837936401,1.035288691520691,-15.54109001159668,-49.59711837768555,3.524733781814575,48074.0,51876.0,52066.0,45339.0,-0.3000025448675481,0.51961377298239,0.5,-0.3811294734477997,-0.5764527916908264,0.006369970738887787,0.011541934683918953,-0.03081507980823517,0.011500440537929535,-0.8745964765548706,0.14665628969669342,1.7572126388549805,-11.470962524414062,-16.782489776611328,6.6365509033203125,52719.0,51298.0,52572.0,50174.0,-0.29999491024331576,-0.5196181808098181,0.5
0.6,TAKEOFF,incipient,1.0,0.6005734205245972,0.02887166291475296,0.0014639454893767834,0.004999858792871237,0.04868257790803909,-0.001501197461038828,0.04912243410944939,0.24786056578159332,0.9791988134384155,-10.288731575012207,-1.6279497146606445,12.477537155151367,49010.0,44985.0,53379.0,48496.0,0.6,0.0,0.5,-0.39589938521385193,0.5826215744018555,0.006092699710279703,0.0359058603644371,-0.03751121833920479,0.04745570570230484,0.8101730346679688,2.589067220687866,1.1581703424453735,-3.7901804447174072,-62.440826416015625,4.47878885269165,49285.0,52901.0,52727.0,43515.0,-0.3000025448675481,0.51961377298239,0.5,-0.3811294734477997,-0.5764527916908264,0.006369970738887787,0.01120301429182291,-0.028005000203847885,0.012653306126594543,-1.1673014163970947,0.44002142548561096,1.8709144592285156,-16.036901473999023,-4.273374080657959,7.320614337921143,53024.0,49971.0,52634.0,52374.0,-0.29999491024331576,-0.5196181808098181,0.5
0.62,TAKEOFF,incipient,1.0,0.6005734205245972,0.02887166291475296,0.0014639454893767834,0.004794597160071135,0.049078043550252914,0.00474338186904788,-0.12125159054994583,0.0599144883453846,1.229659914970398,5.158128261566162,-1.714794397354126,15.581809043884277,50142.0,47062.0,53988.0,46533.0,0.6,0.0,0.5,-0.3914712369441986,0.5788944959640503,0.008187385275959969,0.042241644114255905,-0.052671581506729126,0.05172346532344818,0.9501575827598572,3.671173095703125,1.18416428565979,9.667181968688965,-55.239749908447266,3.220172643661499,49078.0,53874.0,51777.0,43003.0,-0.3000025448675481,0.51961377298239,0.5,-0.3811294734477997,-0.5764527916908264,0.006369970738887787,0.010887984186410904,-0.024213561788201332,0.013609910383820534,-1.6045153141021729,0.4729917347431183,1.9821276664733887,-29.924541473388672,-4.516818523406982,5.075955867767334,52835.0,51428.0,53825.0,51293.0,-0.29999491024331576,-0.5196181808098181,0.5
0.64,TAKEOFF,incipient,1.0,0.6005734205245972,0.02887166291475296,0.0014639454893767834,0.004228641744703054,0.04910484328866005,0.009668827056884766,-0.06439092755317688,0.11475353688001633,1.5242974758148193,16.798555374145508,-11.225059509277344,16.12396812438965,52172.0,49373.0,53177.0,43565.0,0.6,0.0,0.5,-0.3914712369441986,0.5788944959640503,0.008187385275959969,0.03016962856054306,-0.05621565878391266,0.059680335223674774,1.2009508609771729,4.681093215942383,1.1973844766616821,18.149351119995117,-44.213340759277344,-0.030067622661590576,50557.0,54358.0,51103.0,44000.0,-0.3000025448675481,0.51961377298239,0.5,-0.3811294734477997,-0.5764527916908264,0.006369970738887787,0.028639135882258415,-0.025715837255120277,0.03235992416739464,-1.9015488624572754,0.38831207156181335,2.145394802093506,-8.148000717163086,-0.5537721514701843,6.6323161125183105,55824.0,51315.0,51375.0,51460.0,-0.29999491024331576,-0.5196181808098181,0.5
0.66,TAKEOFF,incipient,1.0,0.6005734205245972,0.02887166291475296,0.0014639454893767834,0.003317784983664751,0.047621168196201324,0.015987275168299675,0.272015243768692,0.3044354021549225,1.8428436517715454,23.162120819091797,9.381043434143066,13.977649688720703,54136.0,47710.0,51286.0,46580.0,0.6,0.0,0.5,-0.3914712369441986,0.5788944959640503,0.008187385275959969,0.019176390022039413,-0.06126389652490616,0.06404754519462585,1.578911304473877,5.417981147766113,1.1837307214736938,21.489336013793945,-38.011756896972656,2.4367237091064453,49898.0,55741.0,52166.0,42214.0,-0.3000025448675481,0.51961377298239,0.5,-0.3811294734477997,-0.5764527916908264,0.006369970738887787,0.028639135882258415,-0.025715837255120277,0.03235992416739464,-1.8000701665878296,0.3886145353317261,2.2567203044891357,25.417634963989258,-3.0642943382263184,3.8932430744171143,55580.0,55098.0,51221.0,48564.0,-0.29999491024331576,-0.5196181808098181,0.5
0.68,TAKEOFF,incipient,1.0,0.6045017242431641,0.03516582399606705,0.0006377833196893334,0.00304930517449975,0.0442466139793396,0.021367324516177177,0.790614128112793,0.1446007788181305,2.1252639293670654,35.64828872680664,7.210812091827393,11.98967456817627,55481.0,50521.0,49666.0,44419.0,0.6,0.0,0.5,-0.3914712369441986,0.5788944959640503,0.008187385275959969,-2.068614230665844e-05,-0.06717026978731155,0.07755283266305923,1.8083065748214722,6.173056125640869,1.2054191827774048,-2.165318489074707,-31.69733428955078,2.278503656387329,49898.0,55741.0,52166.0,42214.0,-0.3000025448675481,0.51961377298239,0.5,-0.37425246834754944,-0.5795931220054626,0.010885407216846943,0.008698205463588238,0.01496291533112526,0.04604571312665939,-1.3230658769607544,0.5920412540435791,2.312638998031616,12.511091232299805,-22.7562255859375,3.0099639892578125,52525.0,52741.0,55099.0,51156.0,-0.29999491024331576,-0.5196181808098181,0.5
0.7,TAKEOFF,incipient,1.0,0.6045017242431641,0.03516582399606705,0.0006377833196893334,0.00304930517449975,0.0442466139793396,0.021367324516177177,1.5423051118850708,0.014180632308125496,2.3597586154937744,49.58900833129883,-9.059216499328613,10.657294273376465,53157.0,53036.0,52453.0,41919.0,0.6,0.0,0.5,-0.3914712369441986,0.5788944959640503,0.008187385275959969,-0.03910928592085838,-0.08294926583766937,0.09698353707790375,1.8049322366714478,6.804949760437012,1.214020013809204,-6.276698112487793,-15.026965141296387,4.281484603881836,49479.0,54717.0,53142.0,44794.0,-0.3000025448675481,0.51961377298239,0.5,-0.37425246834754944,-0.5795931220054626,0.010885407216846943,0.004173967055976391,0.02291669137775898,0.05572759732604027,-1.4836041927337646,1.1906261444091797,2.3416101932525635,-15.363755226135254,-19.073823928833008,-1.9227032661437988,51715.0,52157.0,56065.0,52877.0,-0.29999491024331576,-0.5196181808098181,0.5
0.72,TAKEOFF,incipient,1.0,0.6045017242431641,0.03516582399606705,0.0006377833196893334,0.002968043554574251,0.028822937980294228,0.02879226952791214,2.4943792819976807,0.17604190111160278,2.539896011352539,17.59130859375,-5.690502643585205,2.5657193660736084,52068.0,51828.0,52138.0,47016.0,0.6,0.0,0.5,-0.3961871564388275,0.5716359615325928,0.015283195301890373,-0.06806173175573349,-0.08441881835460663,0.10402476042509079,1.369263768196106,7.03079891204834,1.2527109384536743,-34.49558639526367,2.8565776348114014,3.914646625518799,48773.0,52762.0,54204.0,47112.0,-0.3000025448675481,0.51961377298239,0.5,-0.37425246834754944,-0.5795931220054626,0.010885407216846943,0.004173967055976391,0.02291669137775898,0.05572759732604027,-1.9614838361740112,1.5205881595611572,2.3176867961883545,-27.575756072998047,-11.533853530883789,-1.362968921661377,52924.0,52805.0,55289.0,52746.0,-0.29999491024331576,-0.5196181808098181,0.5
0.74,TAKEOFF,incipient,1.0,0.6045017242431641,0.03516582399606705,0.0006377833196893334,0.0024018839467316866,0.01825513131916523,0.03537670522928238,2.918656587600708,0.2679767608642578,2.583026170730591,4.472498416900635,-4.526826858520508,3.5839736461639404,51170.0,49636.0,53459.0,50071.0,0.6,0.0,0.5,-0.3961871564388275,0.5716359615325928,0.015283195301890373,-0.10255839675664902,-0.08435487002134323,0.12139291316270828,0.5036390423774719,6.862302780151367,1.2475202083587646,-43.504573822021484,24.48653221130371,3.805457592010498,51173.0,50517.0,52069.0,49845.0,-0.3000025448675481,0.51961377298239,0.5,-0.37425246834754944,-0.5795931220054626,0.010885407216846943,-0.0012110574170947075,0.029167354106903076,0.061558715999126434,-2.2427334785461426,1.6200814247131348,2.274400472640991,3.6091716289520264,13.016197204589844,-1.3323004245758057,55857.0,53094.0,53063.0,52674.0,-0.29999491024331576,-0.5196181808098181,0.5
0.76,TAKEOFF,incipient,1.0,0.6045017242431641,0.03516582399606705,0.0006377833196893334,0.0014270390383899212,0.006942573469132185,0.046932414174079895,2.9995923042297363,0.35875698924064636,2.6490070819854736,-5.138509750366211,-9.000547409057617,6.190558433532715,52753.0,50011.0,53354.0,49009.0,0.6,0.0,0.5,-0.3961871564388275,0.5716359615325928,0.015283195301890373,-0.12967756390571594,-0.08440767973661423,0.13980762660503387,-0.30985644459724426,6.039373397827148,1.3713855743408203,-32.19268798828125,63.4508056640625,5.221313953399658,51173.0,50517.0,52069.0,49845.0,-0.3000025448675481,0.51961377298239,0.5,-0.37425246834754944,-0.5795931220054626,0.010885407216846943,0.019414033740758896,0.022025883197784424,0.0681430920958519,-1.831889033317566,1.131601095199585,2.2972967624664307,26.329256057739258,12.923079490661621,-0.12414124608039856,57022.0,54465.0,52336.0,51645.0,-0.29999491024331576,-0.5196181808098181,0.5
0.78,TAKEOFF,incipient,1.0,0.6047636866569519,0.03789352998137474,0.0038590864278376102,0.0001929713471326977,-0.0036692104768007994,0.06306394934654236,2.8813583850860596,0.4835777282714844,2.7681076526641846,-7.983124256134033,1.4328094720840454,4.538656711578369,52001.0,50384.0,54126.0,49286.0,0.6,0.0,0.5,-0.3961871564388275,0.5716359615325928,0.015283195301890373,-0.1483999490737915,-0.08419523388147354,0.1476239562034607,-0.6290661692619324,5.321935176849365,1.4269492626190186,-16.507583618164062,79.07426452636719,4.126388072967529,53720.0,49869.0,50241.0,51082.0,-0.3000025448675481,0.51961377298239,0.5,-0.37069401144981384,-0.5758805871009827,0.01618628390133381,0.0302484929561615,0.01746436022222042,0.08473584800958633,-1.154505968093872,0.9545432329177856,2.349912643432617,26.131866455078125,-15.210546493530273,2.555284261703491,54498.0,55502.0,54774.0,51283.0,-0.29999491024331576,-0.5196181808098181,0.5
0.8,TAKEOFF,incipient,1.0,0.6047636866569519,0.03789352998137474,0.0038590864278376102,-0.0011186490301042795,-0.01341676339507103,0.07707048207521439,2.7068703174591064,0.47272738814353943,2.86576509475708,-13.63759994506836,-2.490863561630249,8.138163566589355,51545.0,50086.0,55254.0,49165.0,0.6,0.0,0.5,-0.3961871564388275,0.5716359615325928,0.015283195301890373,-0.16437028348445892,-0.08025301992893219,0.15579572319984436,-1.070752501487732,2.915170431137085,1.5491777658462524,-1.2000882625579834,72.7391128540039,4.502628803253174,53486.0,50752.0,51240.0,50565.0,-0.3000025448675481,0.51961377298239,0.5,-0.37069401144981384,-0.5758805871009827,0.01618628390133381,0.024324985221028328,0.023378755897283554,0.10371122509241104,-0.7227191925048828,1.468254804611206,2.377779960632324,16.997243881225586,-42.31038284301758,4.1747941970825195,53385.0,55905.0,56897.0,49641.0,-0.29999491024331576,-0.5196181808098181,0.5
0.82,TAKEOFF,incipient,1.0,0.6047636866569519,0.03789352998137474,0.0038590864278376102,-0.0027564489282667637,-0.021805783733725548,0.08599764108657837,2.419342041015625,0.5584895610809326,3.0003697872161865,-20.935270309448242,-3.9846067428588867,8.933354377746582,51661.0,49552.0,55905.0,49278.0,0.6,0.0,0.5,-0.4090009927749634,0.5680566430091858,0.02829553931951523,-0.17493246495723724,-0.07427774369716644,0.17106713354587555,-1.064975380897522,1.536099910736084,1.643302321434021,-0.07663553953170776,55.53192138671875,7.081841468811035,53486.0,50752.0,51240.0,50565.0,-0.3000025448675481,0.51961377298239,0.5,-0.37069401144981384,-0.5758805871009827,0.01618628390133381,0.019331123679876328,0.026137610897421837,0.11713679879903793,-0.4898764491081238,2.3130743503570557,2.4820075035095215,4.727140426635742,-35.811309814453125,5.052731990814209,54400.0,52558.0,56336.0,53540.0,-0.29999491024331576,-0.5196181808098181,0.5
0.84,TAKEOFF,incipient,1.0,0.6047636866569519,0.03789352998137474,0.0038590864278376102,-0.004964758642017841,-0.028896503150463104,0.09741704165935516,1.999109148979187,0.6628668904304504,3.189875841140747,-11.391620635986328,-13.557817459106445,13.03886604309082,52489.0,50565.0,56702.0,46841.0,0.6,0.0,0.5,-0.4090009927749634,0.5680566430091858,0.02829553931951523,-0.17532366514205933,-0.07274755090475082,0.178969144821167,-1.0782867670059204,0.45659080147743225,1.7611262798309326,-2.2084686756134033,53.29624557495117,6.568101406097412,53303.0,50980.0,51394.0,49706.0,-0.3000025448675481,0.51961377298239,0.5,-0.37069401144981384,-0.5758805871009827,0.01618628390133381,0.015953976660966873,0.02055955119431019,0.14026963710784912,-0.643589437007904,2.752706289291382,2.584803342819214,-22.737804412841797,-13.235956192016602,4.50388240814209,53411.0,52465.0,57548.0,53800.0,-0.29999491024331576,-0.5196181808098181,0.5
0.86,TAKEOFF,incipient,1.0,0.6047636866569519,0.03789352998137474,0.0038590864278376102,-0.039555490016937256,-0.06541669368743896,0.120603047311306,1.7385621070861816,0.9529860615730286,3.4565556049346924,0.011142212897539139,-20.21173667907715,15.519255638122559,53682.0,52022.0,56377.0,44576.0,0.6,0.0,0.5,-0.4090009927749634,0.5680566430091858,0.02829553931951523,-0.1806703358888626,-0.06891559064388275,0.19835001230239868,-1.062880516052246,-0.37761378288269043,1.8194557428359985,4.759377479553223,30.940948486328125,6.816971778869629,53221.0,52880.0,51829.0,48227.0,-0.3000025448675481,0.51961377298239,0.5,-0.37069401144981384,-0.5758805871009827,0.01618628390133381,0.005458453204482794,0.023626400157809258,0.15946979820728302,-1.0447341203689575,2.7562947273254395,2.7127461433410645,-19.05980110168457,5.603597640991211,6.828974723815918,56062.0,51936.0,55727.0,54151.0,-0.29999491024331576,-0.5196181808098181,0.5
0.88,TAKEOFF,incipient,1.0,0.5952037572860718,0.030313793569803238,0.015337994322180748,-0.05010046064853668,-0.06890778243541718,0.142413929104805,1.9421606063842773,1.5819978713989258,3.673868417739868,10.512733459472656,-25.74367904663086,17.07917594909668,54515.0,52639.0,57203.0,40526.0,0.6,0.0,0.5,-0.4090009927749634,0.5680566430091858,0.02829553931951523,-0.18058106303215027,-0.06280704587697983,0.21588343381881714,-0.950447678565979,-0.9068729877471924,1.9511696100234985,12.31390380859375,26.670425415039062,8.235636711120605,53136.0,52863.0,51892.0,47348.0,-0.3000025448675481,0.51961377298239,0.5,-0.3672522306442261,-0.5747941732406616,0.029677139595150948,0.005458453204482794,0.023626400157809258,0.15946979820728302,-1.2985209226608276,2.55092453956604,2.8702328205108643,-2.576263666152954,14.24779224395752,8.719091415405273,57277.0,53229.0,54702.0,52732.0,-0.29999491024331576,-0.5196181808098181,0.5
0.9,TAKEOFF,incipient,1.0,0.5952037572860718,0.030313793569803238,0.015337994322180748,-0.060503315180540085,-0.07635773718357086,0.15446391701698303,2.1493074893951416,2.19047474861145,4.005024433135986,6.818114757537842,-21.93815040588379,18.851041793823242,52876.0,53557.0,56449.0,43253.0,0.6,0.0,0.5,-0.4090009927749634,0.5680566430091858,0.02829553931951523,-0.16724717617034912,-0.06151917949318886,0.20913584530353546,-0.8108394742012024,-1.2453370094299316,2.0269930362701416,10.529831886291504,28.169479370117188,7.186812400817871,54234.0,53078.0,51121.0,47603.0,-0.3000025448675481,0.51961377298239,0.5,-0.3672522306442261,-0.5747941732406616,0.029677139595150948,-0.0036592623218894005,0.04636054113507271,0.20621031522750854,-1.2039289474487305,2.2057018280029297,3.047720432281494,9.232808113098145,21.2159366607666,9.557865142822266,57424.0,53563.0,53827.0,53146.0,-0.29999491024331576,-0.5196181808098181,0.5
0.921,TAKEOFF,incipient,1.0,0.5952037572860718,0.030313793569803238,0.015337994322180748,-0.07235589623451233,-0.08453809469938278,0.1643899530172348,2.256967782974243,2.6569430828094482,4.347165107727051,-11.322458267211914,-9.024710655212402,19.682903289794922,52477.0,52288.0,57051.0,45267.0,0.6,0.0,0.5,-0.4243910610675812,0.5625615119934082,0.047754839062690735,-0.1624249964952469,-0.058682672679424286,0.21733097732067108,-0.5621626973152161,-2.030310869216919,2.2142248153686523,-1.8497940301895142,19.28654670715332,7.010138034820557,54922.0,53507.0,50925.0,47865.0,-0.3000025448675481,0.51961377298239,0.5,-0.3672522306442261,-0.5747941732406616,0.029677139595150948,-0.0335819385945797,0.06938501447439194,0.21355435252189636,-1.198951005935669,1.9137412309646606,3.1374166011810303,18.11492347717285,21.254838943481445,9.353577613830566,57952.0,52393.0,54034.0,52964.0,-0.29999491024331576,-0.5196181808098181,0.5
0.94,TAKEOFF,incipient,1.0,0.5952037572860718,0.030313793569803238,0.015337994322180748,-0.08556350320577621,-0.09208670258522034,0.18080294132232666,2.024566888809204,2.8977479934692383,4.716287612915039,-17.54568099975586,6.7966718673706055,17.771514892578125,53481.0,51135.0,56401.0,47070.0,0.6,0.0,0.5,-0.4243910610675812,0.5625615119934082,0.047754839062690735,-0.1488734930753708,-0.04954894259572029,0.22241255640983582,-0.6220284700393677,-2.270664691925049,2.243725061416626,-7.623319625854492,16.343015670776367,8.648201942443848,54023.0,52805.0,52387.0,48774.0,-0.3000025448675481,0.51961377298239,0.5,-0.3672522306442261,-0.5747941732406616,0.029677139595150948,-0.039164911955595016,0.07250106334686279,0.22890667617321014,-0.812693178653717,1.4459787607192993,3.407780885696411,21.607221603393555,21.61101722717285,8.80738353729248,57575.0,54054.0,54924.0,51503.0,-0.29999491024331576,-0.5196181808098181,0.5
0.96,TAKEOFF,incipient,1.0,0.5952037572860718,0.030313793569803238,0.015337994322180748,-0.09806826710700989,-0.09777451306581497,0.19535884261131287,1.634053349494934,2.749574899673462,5.078534126281738,-23.026357650756836,26.53485107421875,19.29663848876953,54831.0,49700.0,55442.0,48517.0,0.6,0.0,0.5,-0.4243910610675812,0.5625615119934082,0.047754839062690735,-0.14526337385177612,-0.036803897470235825,0.23333796858787537,-0.8157485723495483,-2.5317866802215576,2.4229464530944824,-10.365272521972656,11.280829429626465,8.512465476989746,53769.0,51078.0,53248.0,50450.0,-0.3000025448675481,0.51961377298239,0.5,-0.3672522306442261,-0.5747941732406616,0.029677139595150948,-0.02941032126545906,0.06682025641202927,0.2460426688194275,-0.3597863018512726,1.1248893737792969,3.543182134628296,20.10841941833496,12.302250862121582,7.72365665435791,57076.0,53185.0,55546.0,52493.0,-0.29999491024331576,-0.5196181808098181,0.5
0.98,TAKEOFF,incipient,1.0,0.5883325934410095,0.023801883682608604,0.033891141414642334,-0.107460618019104,-0.09748916327953339,0.20600056648254395,1.1372475624084473,2.1920039653778076,5.497170925140381,-27.959447860717773,41.27479553222656,19.721569061279297,54117.0,48673.0,56433.0,49390.0,0.6,0.0,0.5,-0.4243910610675812,0.5625615119934082,0.047754839062690735,-0.13975119590759277,-0.026287924498319626,0.2518065273761749,-1.0935075283050537,-2.7445695400238037,2.6296212673187256,-6.901166915893555,11.325382232666016,9.540877342224121,54464.0,52340.0,52811.0,49350.0,-0.3000025448675481,0.51961377298239,0.5,-0.36938774585723877,-0.5648688077926636,0.05274075269699097,-0.02941032126545906,0.06682025641202927,0.2460426688194275,0.04191572964191437,0.8112345933914185,3.7166566848754883,11.958012580871582,7.340651512145996,7.58294677734375,56624.0,52634.0,55932.0,53044.0,-0.29999491024331576,-0.5196181808098181,0.5
1.0,TAKEOFF,incipient,1.0,0.5883325934410095,0.023801883682608604,0.033891141414642334,-0.09962143003940582,-0.0967370793223381,0.21080633997917175,0.5194942951202393,1.3842267990112305,5.93740701675415,-30.359460830688477,36.766693115234375,17.34139060974121,53413.0,48582.0,57258.0,49694.0,0.6,0.0,0.5,-0.4243910610675812,0.5625615119934082,0.047754839062690735,-0.12018077075481415,-0.025886980816721916,0.25071853399276733,-1.2016167640686035,-3.0771121978759766,2.8170948028564453,-2.376657724380493,16.102642059326172,9.811578750610352,55548.0,52461.0,52264.0,49408.0,-0.3000025448675481,0.51961377298239,0.5,-0.36938774585723877,-0.5648688077926636,0.05274075269699097,-0.032498449087142944,0.06670179218053818,0.25879421830177307,0.14602452516555786,0.7444888949394226,3.7858400344848633,6.65034294128418,11.04741096496582,4.578815460205078,56979.0,52062.0,55483.0,53823.0,-0.29999491024331576,-0.5196181808098181,0.5
1.02,TAKEOFF,incipient,1.0,0.5883325934410095,0.023801883682608604,0.033891141414642334,-0.11451411247253418,-0.10184518992900848,0.2280619740486145,-0.11295727640390396,0.500938892364502,6.279140472412109,-30.548559188842773,44.83878707885742,14.418994903564453,54722.0,48345.0,55835.0,51005.0,0.6,0.0,0.5,-0.4243910610675812,0.5625615119934082,0.047754839062690735,-0.10892263799905777,-0.020919717848300934,0.26157864928245544,-1.2129273414611816,-3.438958168029785,2.9991772174835205,2.576155662536621,25.744476318359375,7.829960823059082,55548.0,52461.0,52264.0,49408.0,-0.3000025448675481,0.51961377298239,0.5,-0.36938774585723877,-0.5648688077926636,0.05274075269699097,-0.0370405837893486,0.07415060698986053,0.2603205144405365,0.23946921527385712,0.40298405289649963,3.9377851486206055,0.7500651478767395,14.579052925109863,1.7028782367706299,56650.0,52154.0,55947.0,54436.0,-0.29999491024331576,-0.5196181808098181,0.5
1.04,TAKEOFF,incipient,1.0,0.5883325934410095,0.023801883682608604,0.033891141414642334,-0.1150132492184639,-0.09630830585956573,0.24394063651561737,-0.6545372605323792,-0.3114440143108368,6.5552873611450195,-22.842632293701172,51.87754821777344,12.719037055969238,55343.0,49915.0,55138.0,49699.0,0.6,0.0,0.5,-0.43602022528648376,0.562211275100708,0.07027870416641235,-0.08537272363901138,-0.019533179700374603,0.25946924090385437,-1.0994471311569214,-3.983628749847412,3.125974416732788,2.6997907161712646,8.652483940124512,5.530221939086914,55291.0,52137.0,53018.0,50237.0,-0.3000025448675481,0.51961377298239,0.5,-0.36938774585723877,-0.5648688077926636,0.05274075269699097,-0.022656062617897987,0.0616462416946888,0.2761403024196625,0.2873797118663788,0.05555951967835426,3.9676170349121094,-3.011868953704834,12.35109806060791,-0.38939955830574036,57057.0,51468.0,55581.0,55433.0,-0.29999491024331576,-0.5196181808098181,0.5
1.06,TAKEOFF,incipient,1.0,0.5883325934410095,0.023801883682608604,0.033891141414642334,-0.1117136999964714,-0.08643615990877151,0.2547682523727417,-1.0501431226730347,-1.2731343507766724,6.789736747741699,-2.777372360229492,41.23656463623047,11.938159942626953,55965.0,50188.0,54844.0,49094.0,0.6,0.0,0.5,-0.43602022528648376,0.562211275100708,0.07027870416641235,-0.0659356340765953,-0.015324785374104977,0.25979483127593994,-1.0415184497833252,-4.242745399475098,3.229543685913086,0.43039941787719727,4.714273929595947,3.70363187789917,55100.0,53162.0,53422.0,49770.0,-0.3000025448675481,0.51961377298239,0.5,-0.36938774585723877,-0.5648688077926636,0.05274075269699097,-0.021881410852074623,0.06076214835047722,0.2843003571033478,0.2331385463476181,-0.25481081008911133,3.9698495864868164,-7.884245872497559,10.534809112548828,-1.6231019496917725,56478.0,52504.0,56241.0,54832.0,-0.29999491024331576,-0.5196181808098181,0.5
1.08,TAKEOFF,incipient,1.0,0.5756582617759705,0.015961293131113052,0.058679383248090744,-0.10394211113452911,-0.07856770604848862,0.2689787745475769,-1.1229803562164307,-2.06587290763855,7.08354377746582,3.583526372909546,25.99236297607422,11.710707664489746,55217.0,51771.0,55802.0,47396.0,0.6,0.0,0.5,-0.43602022528648376,0.562211275100708,0.07027870416641235,-0.0652274414896965,0.004564009606838226,0.276623010635376,-1.1296716928482056,-4.218643665313721,3.3516616821289062,-1.2494778633117676,3.017028570175171,-0.010549237951636314,56135.0,52661.0,52230.0,51111.0,-0.3000025448675481,0.51961377298239,0.5,-0.37215307354927063,-0.5539148449897766,0.0784958153963089,-0.040889255702495575,0.0889945700764656,0.2929527163505554,0.1606118083000183,-0.33990150690078735,3.95040225982666,-2.539560079574585,0.06822952628135681,-3.4974517822265625,56202.0,53574.0,56493.0,54256.0,-0.29999491024331576,-0.5196181808098181,0.5
1.1,TAKEOFF,incipient,1.0,0.5756582617759705,0.015961293131113052,0.058679383248090744,-0.09500996768474579,-0.07403489947319031,0.27590587735176086,-0.9974334836006165,-2.5688202381134033,7.3480706214904785,10.751513481140137,17.432493209838867,9.987637519836426,56258.0,50496.0,56334.0,46726.0,0.6,0.0,0.5,-0.43602022528648376,0.562211275100708,0.07027870416641235,-0.0500563308596611,0.009546345099806786,0.2882901728153229,-1.11190927028656,-4.2772440910339355,3.345447063446045,-3.561258554458618,-8.60979175567627,-1.7499769926071167,53216.0,53004.0,55065.0,50560.0,-0.3000025448675481,0.51961377298239,0.5,-0.37215307354927063,-0.5539148449897766,0.0784958153963089,-0.040889255702495575,0.0889945700764656,0.2929527163505554,-0.13607853651046753,-0.19009248912334442,3.878695249557495,5.968948841094971,-10.863846778869629,-5.192108631134033,55972.0,54373.0,56702.0,53831.0,-0.29999491024331576,-0.5196181808098181,0.5
1.12,TAKEOFF,incipient,1.0,0.5756582617759705,0.015961293131113052,0.058679383248090744,-0.08260170370340347,-0.06820985674858093,0.2856169641017914,-0.7735668420791626,-2.935063600540161,7.578775882720947,13.545981407165527,8.052340507507324,9.90451717376709,56092.0,51016.0,56670.0,45922.0,0.6,0.0,0.5,-0.4425920844078064,0.5637558698654175,0.09842751920223236,-0.03444696217775345,0.014723186381161213,0.29660484194755554,-1.1905606985092163,-4.1003923416137695,3.3139050006866455,-3.934596300125122,-13.254593849182129,-2.8971798419952393,54079.0,53480.0,54129.0,50394.0,-0.3000025448675481,0.51961377298239,0.5,-0.37215307354927063,-0.5539148449897766,0.0784958153963089,-0.05062493309378624,0.08543074131011963,0.3220868408679962,0.03615811839699745,0.10731738060712814,3.754847288131714,18.655027389526367,-13.298341751098633,-3.7491350173950195,55961.0,55517.0,56699.0,52256.0,-0.29999491024331576,-0.5196181808098181,0.5
1.14,TAKEOFF,incipient,1.0,0.5756582617759705,0.015961293131113052,0.058679383248090744,-0.055212270468473434,-0.058449890464544296,0.28275859355926514,-0.4809197783470154,-3.0920472145080566,7.8177947998046875,11.978630065917969,2.4093239307403564,11.124809265136719,56165.0,50722.0,57194.0,45788.0,0.6,0.0,0.5,-0.4425920844078064,0.5637558698654175,0.09842751920223236,-0.03296952694654465,0.033042412251234055,0.3152382969856262,-1.369118332862854,-3.725062131881714,3.331141233444214,1.3172149658203125,-16.37664222717285,-2.5996243953704834,54041.0,53625.0,54379.0,50463.0,-0.3000025448675481,0.51961377298239,0.5,-0.37215307354927063,-0.5539148449897766,0.0784958153963089,-0.050878509879112244,0.08250464498996735,0.3354271650314331,0.3958922326564789,0.3994499444961548,3.6742351055145264,23.21784782409668,-13.003442764282227,-3.412424087524414,56727.0,54580.0,55982.0,53214.0,-0.29999491024331576,-0.5196181808098181,0.5
1.16,TAKEOFF,incipient,1.0,0.5756582617759705,0.015961293131113052,0.058679383248090744,-0.04156286269426346,-0.056594379246234894,0.2854956090450287,-0.25512373447418213,-3.233673572540283,8.02678394317627,8.15969467163086,-2.6675686836242676,10.682771682739258,55407.0,52955.0,56841.0,46204.0,0.6,0.0,0.5,-0.4425920844078064,0.5637558698654175,0.09842751920223236,-0.02296651154756546,0.0467914454638958,0.33307212591171265,-1.3976587057113647,-3.3349361419677734,3.315901041030884,5.7359161376953125,-15.475377082824707,-4.022136211395264,53842.0,53775.0,55000.0,49384.0,-0.3000025448675481,0.51961377298239,0.5,-0.37215307354927063,-0.5539148449897766,0.0784958153963089,-0.05066559091210365,0.07686957716941833,0.3458067774772644,0.8735526204109192,0.6185196042060852,3.6015713214874268,19.815357208251953,5.709604263305664,-4.020371437072754,57522.0,53982.0,54810.0,54061.0,-0.29999491024331576,-0.5196181808098181,0.5
1.18,TAKEOFF,incipient,1.0,0.5714529752731323,0.010643240064382553,0.0856732726097107,-0.030794473364949226,-0.05479728430509567,0.29000160098075867,-0.08804041892290115,-3.15267276763916,8.23288345336914,4.9495439529418945,-7.767822265625,10.576539993286133,54497.0,52140.0,58002.0,47556.0,0.6,0.0,0.5,-0.4425920844078064,0.5637558698654175,0.09842751920223236,-0.011183371767401695,0.054958295077085495,0.34740346670150757,-1.286003828048706,-2.9902188777923584,3.2506296634674072,6.788123607635498,-14.426533699035645,-2.8342018127441406,54700.0,53364.0,53317.0,50484.0,-0.3000025448675481,0.51961377298239,0.5,-0.3783362805843353,-0.5479384660720825,0.11255095154047012,-0.05245492607355118,0.06732669472694397,0.3496415317058563,1.2868796586990356,0.5544371008872986,3.5185434818267822,15.5313720703125,9.143755912780762,-6.503875732421875,56881.0,54286.0,55412.0,54003.0,-0.29999491024331576,-0.5196181808098181,0.5
1.2,TAKEOFF,incipient,1.0,0.5714529752731323,0.010643240064382553,0.0856732726097107,0.005673892330378294,-0.06399428099393845,0.287510484457016,-0.037184812128543854,-2.948216438293457,8.428240776062012,-3.708418130874634,-6.304436683654785,10.027585983276367,55043.0,50992.0,57797.0,49141.0,0.6,0.0,0.5,-0.4425920844078064,0.5637558698654175,0.09842751920223236,-0.0008176037226803601,0.0600617453455925,0.3598828613758087,-1.0834672451019287,-2.7380690574645996,3.177147388458252,13.318836212158203,-6.408631801605225,-3.7977843284606934,54655.0,54456.0,53094.0,49299.0,-0.3000025448675481,0.51961377298239,0.5,-0.3783362805843353,-0.5479384660720825,0.11255095154047012,-0.053184546530246735,0.06128605455160141,0.35486742854118347,1.6523247957229614,0.3766053020954132,3.3901124000549316,7.2937397956848145,14.553037643432617,-5.690092086791992,56571.0,53773.0,55924.0,54822.0,-0.29999491024331576,-0.5196181808098181,0.5
1.221,TAKEOFF,incipient,1.0,0.5714529752731323,0.010643240064382553,0.0856732726097107,0.02098011039197445,-0.04866727814078331,0.2887950837612152,-0.11668074131011963,-3.0053906440734863,8.6357421875,-9.38237476348877,-0.24623508751392365,9.276898384094238,55463.0,51056.0,57971.0,49313.0,0.6,0.0,0.5,-0.4425920844078064,0.5637558698654175,0.09842751920223236,0.008795985020697117,0.06427785009145737,0.37254810333251953,-0.8100356459617615,-2.616908073425293,3.0984461307525635,13.998138427734375,-4.1395463943481445,-4.2596211433410645,54400.0,53824.0,53265.0,50102.0,-0.3000025448675481,0.51961377298239,0.5,-0.3783362805843353,-0.5479384660720825,0.11255095154047012,-0.053184546530246735,0.06128605455160141,0.35486742854118347,1.8065561056137085,0.10147988796234131,3.2796506881713867,-1.9752652645111084,13.560201644897461,-6.166905403137207,56737.0,53407.0,55815.0,55434.0,-0.29999491024331576,-0.5196181808098181,0.5
1.24,TAKEOFF,incipient,1.0,0.5714529752731323,0.010643240064382553,0.0856732726097107,0.03359117731451988,-0.03856409341096878,0.29468467831611633,-0.36295387148857117,-3.0056324005126953,8.793961524963379,-15.095782279968262,-7.136718273162842,8.70148754119873,56240.0,51731.0,57568.0,48989.0,0.6,0.0,0.5,-0.4452546238899231,0.5719832181930542,0.1364213526248932,0.02467416040599346,0.06359536945819855,0.38247454166412354,-0.4791271686553955,-2.612421989440918,3.03360652923584,14.178633689880371,3.3704562187194824,-4.276246070861816,54544.0,53398.0,52541.0,51103.0,-0.3000025448675481,0.51961377298239,0.5,-0.3783362805843353,-0.5479384660720825,0.11255095154047012,-0.013715882785618305,0.030462559312582016,0.3672374188899994,1.9067187309265137,-0.3975991904735565,3.1998074054718018,-4.305063247680664,8.310591697692871,-6.341610908508301,56991.0,53314.0,55552.0,55576.0,-0.29999491024331576,-0.5196181808098181,0.5
1.26,TAKEOFF,incipient,1.0,0.5714529752731323,0.010643240064382553,0.0856732726097107,0.04520426690578461,-0.03673606365919113,0.304739385843277,-0.5782150030136108,-2.880119562149048,8.901236534118652,-6.487363815307617,-13.183194160461426,9.139534950256348,56378.0,51360.0,57519.0,49083.0,0.6,0.0,0.5,-0.4452546238899231,0.5719832181930542,0.1364213526248932,0.035214945673942566,0.058757632970809937,0.3831477165222168,-0.1170472651720047,-2.6467232704162598,2.9134249687194824,10.55939769744873,-1.7576147317886353,-5.338683605194092,55265.0,53451.0,51728.0,50209.0,-0.3000025448675481,0.51961377298239,0.5,-0.3783362805843353,-0.5479384660720825,0.11255095154047012,0.0004374775162432343,0.01638106070458889,0.3777923285961151,1.8189812898635864,-0.5818705558776855,3.0836217403411865,-4.661645412445068,2.641439199447632,-5.756577491760254,56716.0,53872.0,55542.0,54804.0,-0.29999491024331576,-0.5196181808098181,0.5
1.28,TAKEOFF,incipient,1.0,0.5812849402427673,0.007110919803380966,0.11422736197710037,0.05396253988146782,-0.03301820158958435,0.3138181269168854,-0.6488052010536194,-2.652646780014038,9.019164085388184,1.4465450048446655,-14.876874923706055,9.580575942993164,56542.0,52522.0,57290.0,47354.0,0.6,0.0,0.5,-0.4452546238899231,0.5719832181930542,0.1364213526248932,0.04471931606531143,0.05941832438111305,0.3930037021636963,0.09821528941392899,-2.5723578929901123,2.8020761013031006,6.284762859344482,-4.0779523849487305,-4.172702312469482,53205.0,54246.0,53255.0,48958.0,-0.3000025448675481,0.51961377298239,0.5,-0.3710046708583832,-0.5497950911521912,0.1494634449481964,0.0004374775162432343,0.01638106070458889,0.3777923285961151,1.8344659805297852,-0.8133237361907959,2.9885172843933105,-2.699286699295044,-2.7230732440948486,-4.803643226623535,56542.0,54193.0,55475.0,54215.0,-0.29999491024331576,-0.5196181808098181,0.5
1.3,TAKEOFF,incipient,1.0,0.5812849402427673,0.007110919803380966,0.11422736197710037,0.0500209704041481,-0.015992147848010063,0.3177584111690521,-0.6801049113273621,-2.290937662124634,9.247762680053711,12.560186386108398,-14.944869041442871,8.617798805236816,55831.0,52656.0,57978.0,46983.0,0.6,0.0,0.5,-0.4452546238899231,0.5719832181930542,0.1364213526248932,0.05392898991703987,0.05939537659287453,0.40421855449676514,0.2583138048648834,-2.4081387519836426,2.6988768577575684,2.4623160362243652,-12.500885009765625,-3.019615650177002,53244.0,53015.0,53196.0,49479.0,-0.3000025448675481,0.51961377298239,0.5,-0.3710046708583832,-0.5497950911521912,0.1494634449481964,0.016354724764823914,0.0011774131562560797,0.3875025808811188,1.84501051902771,-0.8569920063018799,2.88970685005188,-5.6577534675598145,-7.784974098205566,-5.554641246795654,56710.0,53866.0,54819.0,54208.0,-0.29999491024331576,-0.5196181808098181,0.5
1.321,TAKEOFF,incipient,1.0,0.5812849402427673,0.007110919803380966,0.11422736197710037,0.06281369924545288,-0.02168090082705021,0.33414703607559204,-0.43784353137016296,-1.9421137571334839,9.416439056396484,11.893974304199219,-19.78778076171875,7.340463161468506,55907.0,51812.0,57771.0,47700.0,0.6,0.0,0.5,-0.4394668638706207,0.5766677856445312,0.17417599260807037,0.06234565004706383,0.05876585468649864,0.413993775844574,0.3158809542655945,-2.133634328842163,2.6329610347747803,4.910072326660156,-24.04218864440918,-5.803975582122803,53244.0,53015.0,53196.0,49479.0,-0.3000025448675481,0.51961377298239,0.5,-0.3710046708583832,-0.5497950911521912,0.1494634449481964,0.019612018018960953,-0.005213380325585604,0.39693447947502136,1.552538275718689,-0.5074799060821533,2.7805569171905518,-6.673912048339844,-12.173181533813477,-4.481468200683594,55497.0,53581.0,55927.0,54287.0,-0.29999491024331576,-0.5196181808098181,0.5
1.341,TAKEOFF,incipient,1.0,0.5812849402427673,0.007110919803380966,0.11422736197710037,0.06793801486492157,-0.02059016190469265,0.3437177538871765,-0.12156843394041061,-1.5736461877822876,9.492525100708008,9.770709037780762,-20.743854522705078,7.38585901260376,55363.0,52271.0,57964.0,46491.0,0.6,0.0,0.5,-0.4394668638706207,0.5766677856445312,0.17417599260807037,0.0696740373969078,0.05792330577969551,0.42369717359542847,0.35636523365974426,-1.7271419763565063,2.5534090995788574,3.5644888877868652,-23.06825828552246,-3.8116843700408936,53172.0,53451.0,52623.0,48638.0,-0.3000025448675481,0.51961377298239,0.5,-0.3710046708583832,-0.5497950911521912,0.1494634449481964,-0.00447028549388051,0.00772465206682682,0.4045284390449524,1.410024642944336,-0.2826899290084839,2.678638458251953,-5.78876256942749,-15.665654182434082,-3.7592415809631348,54456.0,53757.0,56475.0,53651.0,-0.29999491024331576,-0.5196181808098181,0.5
1.36,TAKEOFF,incipient,1.0,0.5812849402427673,0.007110919803380966,0.11422736197710037,0.07108747214078903,-0.02671985514461994,0.3568831980228424,0.08771037310361862,-1.1410119533538818,9.644391059875488,7.094902038574219,-16.904102325439453,7.578189849853516,56279.0,51649.0,57026.0,46715.0,0.6,0.0,0.5,-0.4394668638706207,0.5766677856445312,0.17417599260807037,0.07553424686193466,0.05680567026138306,0.4327086806297302,0.4673776924610138,-1.339603304862976,2.438164472579956,2.6105191707611084,-15.587642669677734,-5.133172988891602,54008.0,53582.0,51227.0,48252.0,-0.3000025448675481,0.51961377298239,0.5,-0.3710046708583832,-0.5497950911521912,0.1494634449481964,-0.01044443715363741,-0.005403701215982437,0.41516467928886414,1.2445940971374512,0.04140586033463478,2.58514404296875,-8.790687561035156,-15.605741500854492,-5.131206512451172,54771.0,53517.0,55645.0,53688.0,-0.29999491024331576,-0.5196181808098181,0.5
1.38,TAKEOFF,incipient,1.0,0.5860603451728821,0.004834316670894623,0.14931558072566986,0.07162609696388245,-0.030386794358491898,0.36783915758132935,0.28002622723579407,-0.805476188659668,9.71603012084961,5.372109413146973,-10.229708671569824,6.440908908843994,55103.0,52175.0,57815.0,45452.0,0.6,0.0,0.5,-0.4394668638706207,0.5766677856445312,0.17417599260807037,0.11490089446306229,0.023464150726795197,0.41169771552085876,0.770512580871582,-1.2916314601898193,2.3371708393096924,7.165107250213623,-12.274263381958008,-5.076797962188721,53993.0,53243.0,50828.0,48700.0,-0.3000025448675481,0.51961377298239,0.5,-0.3755970895290375,-0.5482872724533081,0.18595384061336517,-0.01044443715363741,-0.005403701215982437,0.41516467928886414,1.1368298530578613,0.36142122745513916,2.439931631088257,-6.126705169677734,-9.85720157623291,-5.303006172180176,53932.0,54136.0,54829.0,53724.0,-0.29999491024331576,-0.5196181808098181,0.5
1.4,TAKEOFF,incipient,1.0,0.5860603451728821,0.004834316670894623,0.14931558072566986,0.07095646858215332,-0.032830964773893356,0.37524572014808655,0.37547576427459717,-0.5587087273597717,9.773714065551758,-1.9820642471313477,-9.743388175964355,5.380834579467773,55212.0,50036.0,57430.0,47613.0,0.6,0.0,0.5,-0.4394668638706207,0.5766677856445312,0.17417599260807037,0.1220521479845047,0.017915692180395126,0.4114949405193329,0.9527996778488159,-1.0615425109863281,2.1642491817474365,0.18146084249019623,-9.996869087219238,-3.5549819469451904,53862.0,52531.0,51138.0,49380.0,-0.3000025448675481,0.51961377298239,0.5,-0.3755970895290375,-0.5482872724533081,0.18595384061336517,-0.011842654086649418,-0.009543852880597115,0.4227159917354584,0.9636232256889343,0.6006293296813965,2.333439588546753,-5.900166988372803,-4.538727283477783,-4.765397548675537,54233.0,54092.0,54324.0,53358.0,-0.29999491024331576,-0.5196181808098181,0.5
1.42,TAKEOFF,incipient,1.0,0.5860603451728821,0.004834316670894623,0.14931558072566986,0.06986367702484131,-0.03448072075843811,0.3778822124004364,0.3158985376358032,-0.36093756556510925,9.81742000579834,-9.238661766052246,-9.548389434814453,3.794386625289917,55519.0,50176.0,56746.0,47304.0,0.6,0.0,0.5,-0.4231009781360626,0.5741365551948547,0.21019917726516724,0.12508945167064667,0.014556621201336384,0.412468820810318,0.9903137683868408,-0.8415064811706543,2.0432119369506836,-1.360368251800537,-17.895891189575195,-2.919795274734497,53862.0,52531.0,51138.0,49380.0,-0.3000025448675481,0.51961377298239,0.5,-0.3755970895290375,-0.5482872724533081,0.18595384061336517,-0.019779108464717865,-0.01406883168965578,0.42434147000312805,0.8713735938072205,0.678504467010498,2.250670909881592,-2.4084715843200684,0.04233973100781441,-3.723098039627075,54829.0,52566.0,53627.0,54082.0,-0.29999491024331576,-0.5196181808098181,0.5
1.44,TAKEOFF,incipient,1.0,0.5860603451728821,0.004834316670894623,0.14931558072566986,0.06155186891555786,-0.027718856930732727,0.3710630536079407,0.06506917625665665,-0.12925128638744354,9.882584571838379,-9.92434310913086,-6.83332633972168,3.565030097961426,55191.0,50562.0,57101.0,46875.0,0.6,0.0,0.5,-0.4231009781360626,0.5741365551948547,0.21019917726516724,0.12606477737426758,0.009328917600214481,0.42161524295806885,0.8315169811248779,-0.2554115355014801,1.9142483472824097,-8.195310592651367,-25.935733795166016,-3.7666726112365723,52529.0,52974.0,52282.0,48520.0,-0.3000025448675481,0.51961377298239,0.5,-0.3755970895290375,-0.5482872724533081,0.18595384061336517,-0.02042005956172943,-0.017585918307304382,0.4250097870826721,0.8167216777801514,0.6220362782478333,2.1459267139434814,-2.8282065391540527,6.9833903312683105,-2.9499545097351074,54752.0,52647.0,53705.0,53499.0,-0.29999491024331576,-0.5196181808098181,0.5
1.46,TAKEOFF,incipient,1.0,0.5860603451728821,0.004834316670894623,0.14931558072566986,0.05985935777425766,-0.02744603343307972,0.3693997263908386,-0.17741164565086365,0.03899642825126648,10.021187782287598,-8.247249603271484,-1.944766879081726,3.1130306720733643,54468.0,50434.0,57823.0,46888.0,0.6,0.0,0.5,-0.4231009781360626,0.5741365551948547,0.21019917726516724,0.12115500122308731,0.011361881159245968,0.42924273014068604,0.6957337856292725,0.05939705669879913,1.9247758388519287,-15.38121223449707,-22.36466407775879,-4.594937801361084,51896.0,52227.0,52504.0,47484.0,-0.3000025448675481,0.51961377298239,0.5,-0.3755970895290375,-0.5482872724533081,0.18595384061336517,-0.02042005956172943,-0.017585918307304382,0.4250097870826721,0.7628815770149231,0.4840945899486542,2.07637095451355,-1.7508403062820435,8.019428253173828,-1.8346611261367798,54701.0,52719.0,53779.0,52845.0,-0.29999491024331576,-0.5196181808098181,0.5
1.48,TAKEOFF,incipient,1.0,0.5894047021865845,0.0015231334837153554,0.1860968917608261,0.05938133969902992,-0.02637292630970478,0.37092575430870056,-0.30543452501296997,0.06171616539359093,10.024680137634277,-5.105798721313477,-3.3675520420074463,2.2257087230682373,54326.0,50789.0,57639.0,46189.0,0.6,0.0,0.5,-0.4231009781360626,0.5741365551948547,0.21019917726516724,0.1171848475933075,0.01101033203303814,0.43911728262901306,0.4276869595050812,0.5420288443565369,1.831290364265442,-11.268879890441895,-18.839012145996094,-4.1502685546875,51409.0,51224.0,51647.0,49343.0,-0.3000025448675481,0.51961377298239,0.5,-0.37713348865509033,-0.5503014326095581,0.22580945491790771,-0.020138053223490715,-0.02350080944597721,0.4222842752933502,0.7165176868438721,0.3468130826950073,2.04313325881958,-4.735747337341309,4.799645900726318,-1.5102618932724,54947.0,51612.0,53696.0,53431.0,-0.29999491024331576,-0.5196181808098181,0.5
1.501,TAKEOFF,incipient,1.0,0.5894047021865845,0.0015231334837153554,0.1860968917608261,0.05847872421145439,-0.024996060878038406,0.3714761435985565,-0.420686274766922,0.16365543007850647,10.064661026000977,-3.448817491531372,-5.3996734619140625,-0.4784735143184662,55244.0,49293.0,56537.0,47865.0,0.6,0.0,0.5,-0.4231009781360626,0.5741365551948547,0.21019917726516724,0.11946391314268112,0.006737193558365107,0.4359893500804901,0.21554426848888397,0.8771758079528809,1.7095942497253418,-9.162590026855469,-11.678948402404785,-1.4933140277862549,51409.0,51224.0,51647.0,49343.0,-0.3000025448675481,0.51961377298239,0.5,-0.37713348865509033,-0.5503014326095581,0.22580945491790771,0.01094819139689207,-0.036958932876586914,0.4391855299472809,0.6242058277130127,0.21365857124328613,1.965914011001587,-6.944671154022217,5.531383037567139,-1.0941425561904907,54665.0,52028.0,53801.0,52878.0,-0.29999491024331576,-0.5196181808098181,0.5
1.521,TAKEOFF,incipient,1.0,0.5894047021865845,0.0015231334837153554,0.1860968917608261,0.05989966541528702,-0.03039844147861004,0.38053762912750244,-0.5056605339050293,0.225238636136055,10.06348705291748,-1.5087636709213257,1.439115285873413,-0.6228185296058655,54435.0,51271.0,57018.0,45534.0,0.6,0.0,0.5,-0.4159521162509918,0.5781145095825195,0.254800021648407,0.11979931592941284,0.00473770359531045,0.4314512014389038,0.04230399802327156,1.1215027570724487,1.6450257301330566,1.4976115226745605,-12.308001518249512,-4.696849346160889,51931.0,52795.0,50971.0,47148.0,-0.3000025448675481,0.51961377298239,0.5,-0.37713348865509033,-0.5503014326095581,0.22580945491790771,0.01094819139689207,-0.036958932876586914,0.4391855299472809,0.5938079953193665,-0.11058499664068222,1.9184046983718872,-5.954339027404785,2.632443428039551,-1.389975666999817,54561.0,51137.0,52436.0,52946.0,-0.29999491024331576,-0.5196181808098181,0.5
1.54,TAKEOFF,incipient,1.0,0.5894047021865845,0.0015231334837153554,0.1860968917608261,0.04926704987883568,-0.023870104923844337,0.36876195669174194,-0.5295895338058472,0.3263223171234131,10.031150817871094,0.3806053102016449,-1.5722254514694214,-2.0779643058776855,55223.0,50831.0,56200.0,45988.0,0.6,0.0,0.5,-0.4159521162509918,0.5781145095825195,0.254800021648407,0.0938599556684494,0.01391603983938694,0.4415002167224884,-0.021350359544157982,1.546344518661499,1.5846706628799438,4.243224143981934,-13.18598747253418,-3.5160202980041504,51623.0,50677.0,51479.0,47307.0,-0.3000025448675481,0.51961377298239,0.5,-0.37713348865509033,-0.5503014326095581,0.22580945491790771,0.020885290578007698,-0.04423811659216881,0.43878835439682007,0.5059285759925842,-0.2168148308992386,1.8967788219451904,-4.507360458374023,-2.2575838565826416,-0.9832233190536499,54097.0,50989.0,52807.0,52518.0,-0.29999491024331576,-0.5196181808098181,0.5
1.56,TAKEOFF,incipient,1.0,0.5894047021865845,0.0015231334837153554,0.1860968917608261,0.04774532467126846,-0.022426199167966843,0.3680674731731415,-0.5178089737892151,0.35580340027809143,9.992213249206543,5.577704429626465,-1.0109981298446655,-2.977935552597046,54763.0,51940.0,56368.0,44499.0,0.6,0.0,0.5,-0.4159521162509918,0.5781145095825195,0.254800021648407,0.08164390176534653,0.020944027230143547,0.4469314217567444,-0.03802987188100815,1.8189059495925903,1.5775645971298218,-4.1666364669799805,-10.215006828308105,-1.6549763679504395,50580.0,51587.0,50975.0,46898.0,-0.3000025448675481,0.51961377298239,0.5,-0.37713348865509033,-0.5503014326095581,0.22580945491790771,0.020885290578007698,-0.04423811659216881,0.43878835439682007,0.3968614339828491,-0.16852430999279022,1.8836650848388672,-6.394872665405273,-6.644436836242676,-0.45569801330566406,53597.0,51378.0,53425.0,51711.0,-0.29999491024331576,-0.5196181808098181,0.5
1.58,TAKEOFF,incipient,1.0,0.5934283137321472,-0.0014277328737080097,0.22295992076396942,0.046067193150520325,-0.021429168060421944,0.3668864369392395,-0.3937430679798126,0.4165436923503876,9.923933029174805,4.352072238922119,-4.122066497802734,-2.5049562454223633,55033.0,50589.0,56057.0,45907.0,0.6,0.0,0.5,-0.4159521162509918,0.5781145095825195,0.254800021648407,0.07532438635826111,0.020981963723897934,0.44522735476493835,-0.10002069175243378,1.9682317972183228,1.5170000791549683,-3.9302115440368652,-3.664324998855591,-1.6348910331726074,50580.0,51587.0,50975.0,46898.0,-0.3000025448675481,0.51961377298239,0.5,-0.3687549829483032,-0.5583280324935913,0.27560392022132874,0.0213780514895916,-0.04015989601612091,0.4428376853466034,0.23541755974292755,0.0004568088334053755,1.8433266878128052,-7.550224304199219,-14.715923309326172,-0.04091014713048935,52305.0,52265.0,53094.0,50394.0,-0.29999491024331576,-0.5196181808098181,0.5
1.6,TAKEOFF,incipient,1.0,0.5934283137321472,-0.0014277328737080097,0.22295992076396942,0.04428398609161377,-0.02076243795454502,0.36237385869026184,-0.2993103861808777,0.4798096716403961,9.86289119720459,3.9260571002960205,-0.836540699005127,-3.8316874504089355,54984.0,50156.0,55896.0,46346.0,0.6,0.0,0.5,-0.4159521162509918,0.5781145095825195,0.254800021648407,0.06525059044361115,0.025508113205432892,0.44389471411705017,-0.22225987911224365,2.040698289871216,1.522707223892212,0.6332405805587769,0.3410121202468872,-1.8894636631011963,50206.0,50721.0,51956.0,46635.0,-0.3000025448675481,0.51961377298239,0.5,-0.3687549829483032,-0.5583280324935913,0.27560392022132874,-0.008430379442870617,-0.026195302605628967,0.42690908908843994,-0.08078444004058838,0.5906930565834045,1.8296383619308472,-9.438136100769043,-20.278587341308594,-0.5811188220977783,51712.0,50909.0,54291.0,51989.0,-0.29999491024331576,-0.5196181808098181,0.5
1.62,TAKEOFF,incipient,1.0,0.5934283137321472,-0.0014277328737080097,0.22295992076396942,0.048418767750263214,-0.031269051134586334,0.37682563066482544,-0.24918411672115326,0.4757224917411804,9.786821365356445,1.4935624599456787,5.820755958557129,-2.3478777408599854,54742.0,50540.0,56048.0,45788.0,0.6,0.0,0.5,-0.41198599338531494,0.5821037888526917,0.299165278673172,0.05840577930212021,0.026083461940288544,0.4391859173774719,-0.21225903928279877,2.015735149383545,1.4442555904388428,-1.1728357076644897,0.7054891586303711,-2.309157133102417,51210.0,50881.0,49778.0,46900.0,-0.3000025448675481,0.51961377298239,0.5,-0.3687549829483032,-0.5583280324935913,0.27560392022132874,-0.008430379442870617,-0.026195302605628967,0.42690908908843994,-0.266629695892334,0.9809625148773193,1.802596092224121,-11.333741188049316,-17.854705810546875,-0.6627668738365173,52232.0,51945.0,53820.0,50459.0,-0.29999491024331576,-0.5196181808098181,0.5
1.641,TAKEOFF,incipient,1.0,0.5934283137321472,-0.0014277328737080097,0.22295992076396942,0.04310991242527962,-0.02593757025897503,0.3694603741168976,-0.17204739153385162,0.3560749292373657,9.687658309936523,0.1589369922876358,13.247105598449707,-3.317976713180542,55242.0,48952.0,55181.0,46972.0,0.6,0.0,0.5,-0.41198599338531494,0.5821037888526917,0.299165278673172,0.05215393751859665,0.02443275786936283,0.42559126019477844,-0.1613866239786148,1.9702503681182861,1.4046190977096558,10.269959449768066,6.610541820526123,-2.3643088340759277,50566.0,51150.0,50130.0,46498.0,-0.3000025448675481,0.51961377298239,0.5,-0.3687549829483032,-0.5583280324935913,0.27560392022132874,-0.0134009700268507,-0.023716194555163383,0.4178732931613922,-0.46599918603897095,1.3157567977905273,1.8031600713729858,-5.454820156097412,-9.465606689453125,-0.987450897693634,52045.0,51659.0,53753.0,51053.0,-0.29999491024331576,-0.5196181808098181,0.5
1.661,TAKEOFF,incipient,1.0,0.5934283137321472,-0.0014277328737080097,0.22295992076396942,0.04427890107035637,-0.0305356252938509,0.37341973185539246,-0.19153907895088196,0.10898218303918839,9.622884750366211,-5.984927177429199,4.303106307983398,-3.527534008026123,54789.0,50187.0,55524.0,45409.0,0.6,0.0,0.5,-0.41198599338531494,0.5821037888526917,0.299165278673172,0.04376547411084175,0.028136959299445152,0.4218251705169678,-0.014120752923190594,1.882161021232605,1.4089909791946411,5.609273910522461,5.440520763397217,-1.300487995147705,51401.0,50871.0,49039.0,46413.0,-0.3000025448675481,0.51961377298239,0.5,-0.3687549829483032,-0.5583280324935913,0.27560392022132874,-0.017041698098182678,-0.023558644577860832,0.40725016593933105,-0.5378125309944153,1.4593266248703003,1.7768970727920532,-0.2563754618167877,0.0791466012597084,-0.03109755739569664,53560.0,49951.0,52537.0,52122.0,-0.29999491024331576,-0.5196181808098181,0.5
1.68,TAKEOFF,incipient,1.0,0.597858190536499,-0.005621923133730888,0.26377642154693604,0.04401750862598419,-0.03225061297416687,0.37476494908332825,-0.23360686004161835,-0.023558728396892548,9.486034393310547,-4.528327465057373,8.83123779296875,-3.1994616985321045,53932.0,50149.0,55922.0,45157.0,0.6,0.0,0.5,-0.41198599338531494,0.5821037888526917,0.299165278673172,0.037182632833719254,0.028802229091525078,0.415700227022171,0.20851624011993408,1.6827492713928223,1.4288285970687866,6.032425880432129,6.575493812561035,-0.3952253758907318,50663.0,52078.0,49762.0,45488.0,-0.3000025448675481,0.51961377298239,0.5,-0.37512609362602234,-0.5581991672515869,0.3131766617298126,-0.021802913397550583,-0.021981993690133095,0.3992706835269928,-0.5140585899353027,1.361441731452942,1.7747796773910522,3.9829978942871094,11.76306438446045,0.05078587308526039,54165.0,50243.0,51684.0,52224.0,-0.29999491024331576,-0.5196181808098181,0.5
1.7,TAKEOFF,incipient,1.0,0.597858190536499,-0.005621923133730888,0.26377642154693604,0.04128662869334221,-0.031479060649871826,0.3677198886871338,-0.31634655594825745,-0.15521802008152008,9.345152854919434,-4.701058387756348,3.211604356765747,-4.546769618988037,54676.0,49961.0,54828.0,45293.0,0.6,0.0,0.5,-0.41198599338531494,0.5821037888526917,0.299165278673172,0.0453021377325058,0.015120724216103554,0.39316490292549133,0.4103669226169586,1.5837159156799316,1.353152871131897,1.4411181211471558,5.545933246612549,-2.6629483699798584,50715.0,51920.0,50253.0,45676.0,-0.3000025448675481,0.51961377298239,0.5,-0.37512609362602234,-0.5581991672515869,0.3131766617298126,0.0004610986798070371,-0.03449688479304314,0.37826085090637207,-0.4113040566444397,1.0489670038223267,1.7598124742507935,4.044716835021973,17.903215408325195,0.6007469892501831,54335.0,50683.0,51513.0,51903.0,-0.29999491024331576,-0.5196181808098181,0.5
1.72,TAKEOFF,incipient,1.0,0.597858190536499,-0.005621923133730888,0.26377642154693604,0.03917085751891136,-0.028513867408037186,0.3528846800327301,-0.37826356291770935,-0.19976919889450073,9.274850845336914,-1.0695180892944336,0.6991897225379944,-6.272907733917236,54244.0,50008.0,55120.0,45359.0,0.6,0.0,0.5,-0.40861693024635315,0.5835259556770325,0.3379018008708954,0.0323578342795372,0.006747823674231768,0.37274813652038574,0.4086228311061859,1.5711897611618042,1.3347476720809937,-2.7024142742156982,2.04756760597229,-2.090663433074951,50015.0,51609.0,50925.0,46050.0,-0.3000025448675481,0.51961377298239,0.5,-0.37512609362602234,-0.5581991672515869,0.3131766617298126,0.0072110421024262905,-0.037020374089479446,0.36132970452308655,-0.2449435442686081,0.47295811772346497,1.7530642747879028,0.5508843660354614,18.344425201416016,0.6785134673118591,53808.0,50221.0,52116.0,51633.0,-0.29999491024331576,-0.5196181808098181,0.5
1.74,TAKEOFF,incipient,1.0,0.597858190536499,-0.005621923133730888,0.26377642154693604,0.041051559150218964,-0.02853240631520748,0.34783604741096497,-0.4293283522129059,-0.17681068181991577,9.232170104980469,-5.396504878997803,-1.2364842891693115,-6.2154927253723145,54646.0,50751.0,54809.0,44549.0,0.6,0.0,0.5,-0.40861693024635315,0.5835259556770325,0.3379018008708954,0.023771382868289948,0.00880951713770628,0.3646266460418701,0.3522084355354309,1.5595890283584595,1.3189473152160645,-1.2011017799377441,0.3029649555683136,-0.9055761694908142,50024.0,50770.0,50789.0,46933.0,-0.3000025448675481,0.51961377298239,0.5,-0.37512609362602234,-0.5581991672515869,0.3131766617298126,-0.009477060288190842,-0.023217830806970596,0.3492170572280884,-0.21778342127799988,0.10416670888662338,1.7793700695037842,-2.036327600479126,9.6155424118042,-0.0983792394399643,53645.0,50709.0,51898.0,51422.0,-0.29999491024331576,-0.5196181808098181,0.5
1.76,TAKEOFF,incipient,1.0,0.597858190536499,-0.005621923133730888,0.26377642154693604,0.041310179978609085,-0.026784269139170647,0.34149399399757385,-0.4877527356147766,-0.17634861171245575,9.11965560913086,-4.953906059265137,-2.905310869216919,-5.906857967376709,54094.0,50446.0,55271.0,44865.0,0.6,0.0,0.5,-0.40861693024635315,0.5835259556770325,0.3379018008708954,0.018709229305386543,0.007556091994047165,0.35573580861091614,0.2687816321849823,1.5358405113220215,1.3072738647460938,-6.6817145347595215,5.496310234069824,-0.049321454018354416,49641.0,50630.0,51173.0,46917.0,-0.3000025448675481,0.51961377298239,0.5,-0.37512609362602234,-0.5581991672515869,0.3131766617298126,-0.009477060288190842,-0.023217830806970596,0.3492170572280884,-0.3681788444519043,0.11528398096561432,1.7851085662841797,-2.8691554069519043,-3.0984952449798584,-0.6266784071922302,53117.0,50785.0,53034.0,51393.0,-0.29999491024331576,-0.5196181808098181,0.5
1.78,TAKEOFF,incipient,1.0,0.5935387015342712,-0.013566532172262669,0.2990322411060333,0.020943911746144295,-0.04211244359612465,0.33943018317222595,-0.568427324295044,-0.10974977165460587,8.992725372314453,-1.6910520792007446,-1.5242602825164795,-5.208148956298828,54174.0,49719.0,55361.0,45412.0,0.6,0.0,0.5,-0.40861693024635315,0.5835259556770325,0.3379018008708954,0.013745156116783619,0.0066474671475589275,0.34741634130477905,0.15278315544128418,1.4523768424987793,1.3050944805145264,-5.607260704040527,8.745750427246094,-0.11186531186103821,49641.0,50630.0,51173.0,46917.0,-0.3000025448675481,0.51961377298239,0.5,-0.37065765261650085,-0.5644412636756897,0.34853866696357727,-0.009045368060469627,-0.01980547606945038,0.3359113335609436,-0.44883114099502563,0.2282939851284027,1.8085530996322632,-5.126145839691162,-13.819043159484863,-0.6795216798782349,52601.0,51847.0,53578.0,50526.0,-0.29999491024331576,-0.5196181808098181,0.5
1.8,TAKEOFF,incipient,1.0,0.5935387015342712,-0.013566532172262669,0.2990322411060333,0.021218637004494667,-0.040176644921302795,0.3405098617076874,-0.5437253713607788,0.08298968523740768,8.941694259643555,-2.945960283279419,1.3793916702270508,-6.3198442459106445,53512.0,50783.0,55635.0,44168.0,0.6,0.0,0.5,-0.40861693024635315,0.5835259556770325,0.3379018008708954,0.009128347039222717,0.006162752863019705,0.3366941511631012,0.12463501840829849,1.1348439455032349,1.2748786211013794,-2.879096269607544,15.094249725341797,-0.5885241627693176,51353.0,50972.0,49869.0,47370.0,-0.3000025448675481,0.51961377298239,0.5,-0.37065765261650085,-0.5644412636756897,0.34853866696357727,-0.019259674474596977,-0.013295714743435383,0.3182900846004486,-0.49626320600509644,0.4993581473827362,1.7882499694824219,-4.922952651977539,-11.923516273498535,-0.7714521288871765,52598.0,51187.0,53046.0,51280.0,-0.29999491024331576,-0.5196181808098181,0.5
1.821,TAKEOFF,incipient,1.0,0.5935387015342712,-0.013566532172262669,0.2990322411060333,0.020662056282162666,-0.03815562278032303,0.33259791135787964,-0.6775036454200745,0.0801158919930458,8.867208480834961,-6.500960350036621,0.04615989327430725,-7.146232604980469,53736.0,49693.0,55099.0,45611.0,0.6,0.0,0.5,-0.4044312536716461,0.5822402238845825,0.36964473128318787,0.021912066265940666,-0.006631161086261272,0.30737680196762085,0.1197715625166893,0.9328128695487976,1.2396178245544434,-1.2615761756896973,10.313478469848633,-0.03445173427462578,51353.0,50972.0,49869.0,47370.0,-0.3000025448675481,0.51961377298239,0.5,-0.37065765261650085,-0.5644412636756897,0.34853866696357727,-0.014072704128921032,-0.01649283617734909,0.30805888772010803,-0.6532797813415527,0.8071285486221313,1.790759801864624,-3.438464879989624,-9.417033195495605,-0.403772234916687,53098.0,51500.0,53129.0,50800.0,-0.29999491024331576,-0.5196181808098181,0.5
1.84,TAKEOFF,incipient,1.0,0.5935387015342712,-0.013566532172262669,0.2990322411060333,0.016674643382430077,-0.03859805315732956,0.3242487609386444,-0.8352532386779785,0.04037466272711754,8.723892211914062,-9.241177558898926,5.071985721588135,-7.371061325073242,53823.0,49881.0,55014.0,45370.0,0.6,0.0,0.5,-0.4044312536716461,0.5822402238845825,0.36964473128318787,0.016898110508918762,-0.007545340806245804,0.2980477809906006,0.09774649143218994,0.7094097137451172,1.2244800329208374,0.9312235116958618,6.791358470916748,-0.10534390062093735,51179.0,50191.0,51645.0,46458.0,-0.3000025448675481,0.51961377298239,0.5,-0.37065765261650085,-0.5644412636756897,0.34853866696357727,-0.01996537111699581,-0.01729898527264595,0.3019433915615082,-0.6476462483406067,0.897060751914978,1.8000377416610718,2.104290008544922,-2.1445693969726562,-1.0686362981796265,53362.0,50722.0,52527.0,51766.0,-0.29999491024331576,-0.5196181808098181,0.5
1.86,TAKEOFF,incipient,1.0,0.5935387015342712,-0.013566532172262669,0.2990322411060333,0.03366771340370178,-0.04041370376944542,0.31099510192871094,-1.0004359483718872,-0.03932034969329834,8.597830772399902,-8.409798622131348,8.671396255493164,-6.729862213134766,54112.0,49406.0,54759.0,45859.0,0.6,0.0,0.5,-0.4044312536716461,0.5822402238845825,0.36964473128318787,-0.0035996309015899897,0.00696222810074687,0.2904800474643707,-0.04332076385617256,0.692912220954895,1.301316261291504,-3.900639533996582,4.99573278427124,1.7705116271972656,50657.0,50483.0,50932.0,47583.0,-0.3000025448675481,0.51961377298239,0.5,-0.37065765261650085,-0.5644412636756897,0.34853866696357727,-0.01996537111699581,-0.01729898527264595,0.3019433915615082,-0.5809959173202515,0.9248090386390686,1.7732380628585815,2.787830352783203,3.839077949523926,-0.9085912704467773,53332.0,50758.0,52713.0,51563.0,-0.29999491024331576,-0.5196181808098181,0.5
1.88,TAKEOFF,incipient,1.0,0.5970597863197327,-0.01883547566831112,0.33262911438941956,0.029121872037649155,-0.03866739198565483,0.30961722135543823,-1.0996224880218506,-0.3298727869987488,8.414410591125488,-9.382866859436035,14.2692232131958,-5.974815368652344,54153.0,49377.0,54767.0,46185.0,0.6,0.0,0.5,-0.4044312536716461,0.5822402238845825,0.36964473128318787,-0.005772924982011318,0.007105622440576553,0.2797510325908661,-0.12445318698883057,0.6423393487930298,1.3327711820602417,-4.578707218170166,-4.556661605834961,0.8694864511489868,50530.0,51937.0,51036.0,45953.0,-0.3000025448675481,0.51961377298239,0.5,-0.37437257170677185,-0.5654398798942566,0.37962695956230164,-0.027508534491062164,-0.014230487868189812,0.28317534923553467,-0.5105949640274048,0.8531250357627869,1.7283521890640259,3.7815163135528564,5.223824977874756,-1.2580204010009766,53772.0,50753.0,52309.0,51642.0,-0.29999491024331576,-0.5196181808098181,0.5
1.9,TAKEOFF,incipient,1.0,0.5970597863197327,-0.01883547566831112,0.33262911438941956,0.03410729765892029,-0.03439123183488846,0.2971990406513214,-1.2363471984863281,-0.5431230068206787,8.27910041809082,-9.028716087341309,12.010870933532715,-5.122262001037598,54615.0,49160.0,54220.0,46223.0,0.6,0.0,0.5,-0.4044312536716461,0.5822402238845825,0.36964473128318787,-0.007893120869994164,0.007530856411904097,0.2696501612663269,-0.21212248504161835,0.700234591960907,1.3551403284072876,-2.682595729827881,-0.3389735519886017,0.8266751766204834,50771.0,51577.0,51003.0,46362.0,-0.3000025448675481,0.51961377298239,0.5,-0.37437257170677185,-0.5654398798942566,0.37962695956230164,-0.030074041336774826,-0.012819253839552402,0.27316203713417053,-0.4370862543582916,0.7444564700126648,1.6907706260681152,2.6115896701812744,5.230031967163086,-0.4921560287475586,53828.0,50884.0,52352.0,51508.0,-0.29999491024331576,-0.5196181808098181,0.5
1.92,TAKEOFF,incipient,1.0,0.5970597863197327,-0.01883547566831112,0.33262911438941956,0.03078933246433735,-0.024247750639915466,0.2914765775203705,-1.3797540664672852,-0.8032004237174988,8.127102851867676,-7.317075729370117,2.5059847831726074,-6.461402416229248,53746.0,49179.0,55199.0,46320.0,0.6,0.0,0.5,-0.40585172176361084,0.5847442746162415,0.39563238620758057,-0.010209046304225922,0.008214632049202919,0.2604174315929413,-0.21708261966705322,0.5828667283058167,1.3502581119537354,-0.5828823447227478,5.226260185241699,0.7822881937026978,50771.0,51577.0,51003.0,46362.0,-0.3000025448675481,0.51961377298239,0.5,-0.37437257170677185,-0.5654398798942566,0.37962695956230164,-0.0321178212761879,-0.011740478686988354,0.2622425854206085,-0.3777585029602051,0.6347979307174683,1.6763224601745605,3.022477865219116,3.989389657974243,-0.13797105848789215,53587.0,50936.0,52754.0,51486.0,-0.29999491024331576,-0.5196181808098181,0.5
1.94,TAKEOFF,incipient,1.0,0.5970597863197327,-0.01883547566831112,0.33262911438941956,0.03444524481892586,-0.013283922336995602,0.28324228525161743,-1.575047254562378,-0.8210777044296265,8.027873039245605,-3.810347318649292,0.2180021107196808,-4.568634510040283,53461.0,49416.0,55365.0,45907.0,0.6,0.0,0.5,-0.40585172176361084,0.5847442746162415,0.39563238620758057,0.0005386894335970283,0.003950538579374552,0.24472537636756897,-0.2404567152261734,0.45809367299079895,1.3376110792160034,0.28921884298324585,12.789840698242188,-1.2970463037490845,51065.0,50284.0,50756.0,48504.0,-0.3000025448675481,0.51961377298239,0.5,-0.37437257170677185,-0.5654398798942566,0.37962695956230164,-0.012981691397726536,-0.020423952490091324,0.25673621892929077,-0.33523401618003845,0.5485320091247559,1.6652957201004028,0.12159546464681625,4.854742527008057,-0.1636853963136673,54492.0,50269.0,52298.0,51441.0,-0.29999491024331576,-0.5196181808098181,0.5
1.96,TAKEOFF,incipient,1.0,0.5970597863197327,-0.01883547566831112,0.33262911438941956,0.04176679253578186,-0.008746664971113205,0.27776461839675903,-1.7176804542541504,-0.7911328673362732,7.962828636169434,-4.230948448181152,-7.868590831756592,-3.6998682022094727,54056.0,50023.0,54844.0,45184.0,0.6,0.0,0.5,-0.40585172176361084,0.5847442746162415,0.39563238620758057,-0.0023030450101941824,0.005331941414624453,0.24360983073711395,-0.2661237418651581,0.22247786819934845,1.2849786281585693,-3.6454923152923584,16.730863571166992,0.0013458209577947855,51516.0,51948.0,50232.0,46192.0,-0.3000025448675481,0.51961377298239,0.5,-0.37437257170677185,-0.5654398798942566,0.37962695956230164,-0.012981691397726536,-0.020423952490091324,0.25673621892929077,-0.263203889131546,0.26978638768196106,1.6806098222732544,-2.158780097961426,1.0300147533416748,0.37125837802886963,53537.0,50782.0,52600.0,51761.0,-0.29999491024331576,-0.5196181808098181,0.5
1.98,TAKEOFF,incipient,1.0,0.6039345860481262,-0.015315857715904713,0.35987991094589233,0.03949492797255516,0.003700247034430504,0.2705761194229126,-1.8227941989898682,-0.6457274556159973,7.882955551147461,1.0717743635177612,-9.701376914978027,-4.577071666717529,54107.0,50513.0,54710.0,44631.0,0.6,0.0,0.5,-0.40585172176361084,0.5847442746162415,0.39563238620758057,-0.0028192426543682814,0.006246231496334076,0.2359999567270279,-0.32999682426452637,-0.03697753697633743,1.260360598564148,1.5144249200820923,6.380033016204834,0.1586294174194336,52337.0,50646.0,51173.0,46710.0,-0.3000025448675481,0.51961377298239,0.5,-0.37300437688827515,-0.5690885186195374,0.40690362453460693,-0.03798568248748779,0.003154452657327056,0.2282753884792328,-0.30587464570999146,0.2139580100774765,1.6863439083099365,-2.238085985183716,-0.017431434243917465,0.7856932878494263,53829.0,51185.0,52578.0,51102.0,-0.29999491024331576,-0.5196181808098181,0.5
2.0,TAKEOFF,incipient,1.0,0.6039345860481262,-0.015315857715904713,0.35987991094589233,0.049432430416345596,0.006003971677273512,0.26689597964286804,-1.7614078521728516,-0.4519515037536621,7.798650741577148,4.775743007659912,-9.146352767944336,-4.851945400238037,53549.0,50389.0,55202.0,44929.0,0.6,0.0,0.5,-0.40585172176361084,0.5847442746162415,0.39563238620758057,-0.011895093135535717,0.017055761069059372,0.22295810282230377,-0.3355116546154022,-0.07106807082891464,1.2768973112106323,6.352389335632324,-0.26219233870506287,0.8500272035598755,51385.0,51075.0,52311.0,45961.0,-0.3000025448675481,0.51961377298239,0.5,-0.37300437688827515,-0.5690885186195374,0.40690362453460693,-0.039372824132442474,0.0047376761212944984,0.21953769028186798,-0.5095177292823792,0.4167197048664093,1.7311813831329346,-1.4327350854873657,-4.143211364746094,1.3554115295410156,52940.0,50471.0,53964.0,52258.0,-0.29999491024331576,-0.5196181808098181,0.5
2.02,TAKEOFF,incipient,1.0,0.6039345860481262,-0.015315857715904713,0.35987991094589233,0.05182221904397011,0.009547734633088112,0.2613444924354553,-1.6342202425003052,-0.3342053294181824,7.640341281890869,5.674070835113525,-6.011596202850342,-5.5508222579956055,53780.0,49574.0,54872.0,45929.0,0.6,0.0,0.5,-0.41043081879615784,0.5891532897949219,0.41994208097457886,-0.012877759523689747,0.019311031326651573,0.21463042497634888,-0.26551705598831177,-0.026012985035777092,1.3359750509262085,4.120778560638428,-2.1620752811431885,1.4966652393341064,52015.0,52157.0,50278.0,46020.0,-0.3000025448675481,0.51961377298239,0.5,-0.37300437688827515,-0.5690885186195374,0.40690362453460693,-0.04524606838822365,0.009792623110115528,0.20851512253284454,-0.5635748505592346,0.47583386301994324,1.7456884384155273,-0.6761537194252014,-3.4999730587005615,0.6466241478919983,53255.0,50094.0,53756.0,52640.0,-0.29999491024331576,-0.5196181808098181,0.5
2.041,TAKEOFF,incipient,1.0,0.6039345860481262,-0.015315857715904713,0.35987991094589233,0.05196700617671013,0.014660934917628765,0.2517563998699188,-1.5262304544448853,-0.21208307147026062,7.4908599853515625,7.792992115020752,-4.014126300811768,-4.559823989868164,54686.0,50476.0,54041.0,44688.0,0.6,0.0,0.5,-0.41043081879615784,0.5891532897949219,0.41994208097457886,-0.012846042402088642,0.020116833969950676,0.20958438515663147,-0.1229226142168045,-0.026802318170666695,1.3459800481796265,4.824351787567139,-2.730030059814453,1.8001559972763062,50964.0,51010.0,51545.0,47763.0,-0.3000025448675481,0.51961377298239,0.5,-0.37300437688827515,-0.5690885186195374,0.40690362453460693,-0.03447197377681732,0.005623112432658672,0.19732175767421722,-0.6065251231193542,0.5412728190422058,1.78265380859375,-0.2745896279811859,2.308992385864258,0.4146285653114319,53683.0,50547.0,53841.0,52294.0,-0.29999491024331576,-0.5196181808098181,0.5
2.06,TAKEOFF,incipient,1.0,0.6039345860481262,-0.015315857715904713,0.35987991094589233,0.01883111149072647,0.01243822555989027,0.2432822436094284,-1.3438149690628052,-0.11783188581466675,7.410038471221924,8.344061851501465,-4.099264144897461,-4.168147087097168,54883.0,50839.0,53903.0,44404.0,0.6,0.0,0.5,-0.41043081879615784,0.5891532897949219,0.41994208097457886,-0.008603351190686226,0.017226291820406914,0.19994565844535828,-0.009012673050165176,0.016585061326622963,1.35764479637146,5.0444440841674805,1.8161271810531616,1.1615359783172607,51550.0,51393.0,50747.0,47281.0,-0.3000025448675481,0.51961377298239,0.5,-0.37300437688827515,-0.5690885186195374,0.40690362453460693,-0.044540420174598694,0.016771527007222176,0.1873941719532013,-0.5613006353378296,0.3603564202785492,1.799901008605957,3.7898142337799072,7.523324489593506,0.20429714024066925,54495.0,51194.0,52877.0,51926.0,-0.29999491024331576,-0.5196181808098181,0.5
2.08,TAKEOFF,incipient,1.0,0.6036179661750793,-0.0160406194627285,0.3860864043235779,0.016864927485585213,0.01982446387410164,0.23950296640396118,-1.1751030683517456,0.1822286695241928,7.3885369300842285,6.455846309661865,-3.9612858295440674,-3.8102965354919434,53247.0,50453.0,55512.0,44920.0,0.6,0.0,0.5,-0.41043081879615784,0.5891532897949219,0.41994208097457886,-0.008630945347249508,0.017178263515233994,0.1944175809621811,0.08133090287446976,-0.06598313897848129,1.3488458395004272,4.932798385620117,5.373110771179199,0.08253992348909378,53178.0,52007.0,49068.0,47003.0,-0.3000025448675481,0.51961377298239,0.5,-0.37952518463134766,-0.5678420066833496,0.4246295392513275,-0.04395781457424164,0.00841580517590046,0.18775995075702667,-0.5461972951889038,0.27235540747642517,1.8299098014831543,6.471713066101074,9.733839988708496,0.49810153245925903,54624.0,51003.0,53114.0,51682.0,-0.29999491024331576,-0.5196181808098181,0.5
2.101,TAKEOFF,incipient,1.0,0.6036179661750793,-0.0160406194627285,0.3860864043235779,0.03550319746136665,0.023433297872543335,0.22515998780727386,-1.103432297706604,0.2461986094713211,7.367386341094971,4.3078293800354,-3.574381113052368,-4.933494567871094,54200.0,49798.0,54531.0,45733.0,0.6,0.0,0.5,-0.41043081879615784,0.5891532897949219,0.41994208097457886,-0.007677451241761446,0.01688423566520214,0.18609748780727386,0.15558964014053345,-0.20550763607025146,1.3347177505493164,-0.8481194376945496,13.25975513458252,0.844419538974762,51628.0,51372.0,50796.0,47398.0,-0.3000025448675481,0.51961377298239,0.5,-0.37952518463134766,-0.5678420066833496,0.4246295392513275,-0.045700233429670334,0.009691674262285233,0.18505620956420898,-0.32966944575309753,0.07413666695356369,1.8275237083435059,8.979419708251953,8.374344825744629,-0.30358442664146423,54389.0,51317.0,52886.0,51789.0,-0.29999491024331576,-0.5196181808098181,0.5
2.12,TAKEOFF,incipient,1.0,0.6036179661750793,-0.0160406194627285,0.3860864043235779,0.04124601557850838,0.02569245919585228,0.21477575600147247,-1.032548189163208,0.13219888508319855,7.23153829574585,-2.214374303817749,3.7752685546875,-4.178092002868652,53457.0,50927.0,55447.0,44604.0,0.6,0.0,0.5,-0.41043081879615784,0.5891532897949219,0.41994208097457886,-0.006770963780581951,0.016388913616538048,0.1814711093902588,0.15322330594062805,-0.44515615701675415,1.3500980138778687,0.8326958417892456,6.787839889526367,1.4391776323318481,51628.0,51372.0,50796.0,47398.0,-0.3000025448675481,0.51961377298239,0.5,-0.37952518463134766,-0.5678420066833496,0.4246295392513275,-0.045700233429670334,0.009691674262285233,0.18505620956420898,-0.16299498081207275,-0.07190964370965958,1.8107221126556396,6.527778148651123,6.416100025177002,-0.8220994472503662,54172.0,51850.0,53028.0,51419.0,-0.29999491024331576,-0.5196181808098181,0.5
2.14,TAKEOFF,incipient,1.0,0.6036179661750793,-0.0160406194627285,0.3860864043235779,0.04267900437116623,0.028437012806534767,0.20688503980636597,-1.051697850227356,0.06599019467830658,7.1108784675598145,-0.1937088519334793,-1.2493823766708374,-3.4754018783569336,54195.0,50067.0,54832.0,45872.0,0.6,0.0,0.5,-0.40989309549331665,0.5896047949790955,0.43823134899139404,-0.008518756367266178,0.016062084585428238,0.18391627073287964,0.1663137972354889,-0.5417388081550598,1.3657612800598145,0.26102370023727417,-0.8368096351623535,2.1732699871063232,51925.0,51242.0,50524.0,47563.0,-0.3000025448675481,0.51961377298239,0.5,-0.37952518463134766,-0.5678420066833496,0.4246295392513275,-0.0483023002743721,0.017933404073119164,0.16929931938648224,-0.09270962327718735,-0.134095698595047,1.812200665473938,3.678981304168701,3.7528836727142334,-0.12281594425439835,54015.0,51665.0,53588.0,51595.0,-0.29999491024331576,-0.5196181808098181,0.5
2.16,TAKEOFF,incipient,1.0,0.6036179661750793,-0.0160406194627285,0.3860864043235779,0.04206983372569084,0.03183317556977272,0.19962455332279205,-1.0382353067398071,0.051531512290239334,6.976237773895264,0.5338113903999329,-0.20836307108402252,-3.5063226222991943,54558.0,50482.0,54373.0,45659.0,0.6,0.0,0.5,-0.40989309549331665,0.5896047949790955,0.43823134899139404,-0.006685326807200909,0.015547108836472034,0.17950816452503204,0.19344374537467957,-0.5506536364555359,1.405281662940979,3.2744901180267334,-0.4891688823699951,0.48770344257354736,52110.0,51270.0,51498.0,45647.0,-0.3000025448675481,0.51961377298239,0.5,-0.37952518463134766,-0.5678420066833496,0.4246295392513275,-0.047726090997457504,0.018092406913638115,0.16350653767585754,-0.027995480224490166,-0.18223699927330017,1.8164560794830322,2.687317371368408,-0.7230905294418335,0.9523531794548035,53914.0,51117.0,53814.0,52154.0,-0.29999491024331576,-0.5196181808098181,0.5
2.18,TAKEOFF,incipient,1.0,0.6135746240615845,-0.012969150207936764,0.40747445821762085,0.04150150343775749,0.035078682005405426,0.19086287915706635,-0.9825437664985657,0.05406264588236809,6.894216060638428,4.366452217102051,-1.9366706609725952,-4.18246603012085,54349.0,50234.0,54687.0,46059.0,0.6,0.0,0.5,-0.40989309549331665,0.5896047949790955,0.43823134899139404,-0.02770337648689747,0.035626672208309174,0.17681589722633362,0.12814019620418549,-0.3965982496738434,1.443939208984375,1.0913712978363037,-1.1010125875473022,2.128913164138794,51204.0,52536.0,51332.0,45896.0,-0.3000025448675481,0.51961377298239,0.5,-0.3864549398422241,-0.5641075372695923,0.4421771466732025,-0.047726090997457504,0.018092406913638115,0.16350653767585754,0.009135058149695396,-0.18630926311016083,1.8316270112991333,2.692983388900757,0.9300779104232788,0.1076115071773529,53660.0,51068.0,54017.0,52340.0,-0.29999491024331576,-0.5196181808098181,0.5
2.2,TAKEOFF,incipient,1.0,0.6135746240615845,-0.012969150207936764,0.40747445821762085,0.029926536604762077,0.05884518474340439,0.1899387240409851,-1.082527995109558,0.1612376719713211,6.8598456382751465,4.561840057373047,-5.924592971801758,-3.3960938453674316,53618.0,50916.0,55308.0,45159.0,0.6,0.0,0.5,-0.40989309549331665,0.5896047949790955,0.43823134899139404,-0.019977305084466934,0.029149575158953667,0.16190898418426514,0.1999364048242569,-0.39681148529052734,1.4615293741226196,1.7441195249557495,2.4421048164367676,0.5072855949401855,52641.0,51241.0,51611.0,46038.0,-0.3000025448675481,0.51961377298239,0.5,-0.3864549398422241,-0.5641075372695923,0.4421771466732025,-0.04643668979406357,0.018008191138505936,0.15147608518600464,0.04372411221265793,-0.21782304346561432,1.8250070810317993,2.5595057010650635,0.6247062087059021,-0.516089677810669,54144.0,50889.0,53554.0,52672.0,-0.29999491024331576,-0.5196181808098181,0.5
2.22,TAKEOFF,incipient,1.0,0.6135746240615845,-0.012969150207936764,0.40747445821762085,0.024413729086518288,0.0685778334736824,0.18547815084457397,-1.0054316520690918,0.326743483543396,6.830204010009766,5.251865863800049,-7.467626571655273,-5.157833099365234,54234.0,51381.0,54748.0,44575.0,0.6,0.0,0.5,-0.41337716579437256,0.5946366786956787,0.4532432556152344,-0.024611838161945343,0.033102042973041534,0.1538853943347931,0.21127207577228546,-0.4225154519081116,1.52495276927948,4.860018730163574,7.563408851623535,-1.0040147304534912,52007.0,51183.0,50921.0,48022.0,-0.3000025448675481,0.51961377298239,0.5,-0.3864549398422241,-0.5641075372695923,0.4421771466732025,-0.045613471418619156,0.017776144668459892,0.1462552547454834,0.09121759235858917,-0.25959497690200806,1.8181431293487549,2.9565041065216064,4.676574230194092,-0.026727408170700073,54562.0,52117.0,53398.0,51342.0,-0.29999491024331576,-0.5196181808098181,0.5
2.24,TAKEOFF,incipient,1.0,0.6135746240615845,-0.012969150207936764,0.40747445821762085,0.02406901866197586,0.07053192704916,0.17926783859729767,-0.8565499186515808,0.46843451261520386,6.8042378425598145,11.91640853881836,-9.188270568847656,-3.5745580196380615,54051.0,51105.0,55092.0,44776.0,0.6,0.0,0.5,-0.41337716579437256,0.5946366786956787,0.4532432556152344,-0.017292484641075134,0.029036926105618477,0.14193354547023773,0.2863500416278839,-0.5741358399391174,1.5209084749221802,0.07871197164058685,10.0303316116333,-0.1403634250164032,51807.0,51410.0,51191.0,47826.0,-0.3000025448675481,0.51961377298239,0.5,-0.3864549398422241,-0.5641075372695923,0.4421771466732025,-0.008924802765250206,-0.011548417620360851,0.14339742064476013,0.1803494095802307,-0.34394383430480957,1.8239378929138184,5.489233493804932,5.978339195251465,1.609959602355957,55887.0,50838.0,52797.0,51675.0,-0.29999491024331576,-0.5196181808098181,0.5
2.261,TAKEOFF,incipient,1.0,0.6135746240615845,-0.012969150207936764,0.40747445821762085,-0.0009923491161316633,0.052303511649370193,0.18155860900878906,-0.5959084630012512,0.6202542781829834,6.794867515563965,13.07442569732666,-6.528659820556641,-3.690662384033203,54276.0,51813.0,54798.0,43746.0,0.6,0.0,0.5,-0.41337716579437256,0.5946366786956787,0.4532432556152344,-0.018310969695448875,0.026873646304011345,0.14018939435482025,0.37490400671958923,-0.7716343998908997,1.4755939245224,7.347549915313721,8.008626937866211,0.07656635344028473,52481.0,52823.0,50737.0,46093.0,-0.3000025448675481,0.51961377298239,0.5,-0.3864549398422241,-0.5641075372695923,0.4421771466732025,-0.008924802765250206,-0.011548417620360851,0.14339742064476013,0.537097156047821,-0.743152379989624,1.886281132698059,5.767535209655762,6.658123970031738,-0.3878808319568634,55514.0,51386.0,52241.0,52172.0,-0.29999491024331576,-0.5196181808098181,0.5
2.28,TAKEOFF,incipient,1.0,0.6108468770980835,-0.007120119873434305,0.42881402373313904,-0.003944643307477236,0.05281253531575203,0.17493334412574768,-0.1736033707857132,0.877390444278717,6.7635602951049805,14.478318214416504,-0.08145265281200409,-3.653014898300171,53481.0,50760.0,55439.0,45146.0,0.6,0.0,0.5,-0.41337716579437256,0.5946366786956787,0.4532432556152344,-0.010087947361171246,0.023059744387865067,0.1295371651649475,0.5167912244796753,-0.9076647758483887,1.4791473150253296,9.399384498596191,4.17446756362915,0.5886342525482178,51034.0,52465.0,52476.0,46640.0,-0.3000025448675481,0.51961377298239,0.5,-0.3894551396369934,-0.5647034645080566,0.4564576745033264,-0.028884734958410263,-0.00036570490919984877,0.13190941512584686,0.5260245203971863,-0.6880916357040405,1.8900933265686035,0.9393242597579956,3.536977767944336,0.6788011789321899,54205.0,51562.0,53914.0,52114.0,-0.29999491024331576,-0.5196181808098181,0.5
2.3,TAKEOFF,incipient,1.0,0.6108468770980835,-0.007120119873434305,0.42881402373313904,-0.004452825989574194,0.05301811546087265,0.16432669758796692,0.05604662001132965,0.8146539330482483,6.6597394943237305,10.939839363098145,3.6331844329833984,-4.811657905578613,54641.0,50901.0,54368.0,45330.0,0.6,0.0,0.5,-0.41337716579437256,0.5946366786956787,0.4532432556152344,-0.004525411874055862,0.021463334560394287,0.12093444913625717,0.6559966802597046,-0.9650717377662659,1.5021668672561646,2.583433151245117,0.6369538307189941,3.096308708190918,51034.0,52465.0,52476.0,46640.0,-0.3000025448675481,0.51961377298239,0.5,-0.3894551396369934,-0.5647034645080566,0.4564576745033264,-0.027239633724093437,-0.002409079810604453,0.1286558210849762,0.48992201685905457,-0.6814942359924316,1.9109077453613281,-2.1543948650360107,-2.975330352783203,0.684431254863739,54145.0,51270.0,54233.0,52339.0,-0.29999491024331576,-0.5196181808098181,0.5
2.321,TAKEOFF,incipient,1.0,0.6108468770980835,-0.007120119873434305,0.42881402373313904,0.0022764967288821936,0.04984067752957344,0.16142448782920837,0.2400636374950409,0.6635116338729858,6.587732315063477,3.7782256603240967,10.189098358154297,-3.9107980728149414,53829.0,50426.0,55174.0,45685.0,0.6,0.0,0.5,-0.41337716579437256,0.5946366786956787,0.4532432556152344,-0.0062599582597613335,0.01815449818968773,0.12594620883464813,0.7614108324050903,-0.9438037276268005,1.5267831087112427,1.7239998579025269,-3.1303470134735107,0.5206254720687866,51957.0,50402.0,51584.0,49101.0,-0.3000025448675481,0.51961377298239,0.5,-0.3894551396369934,-0.5647034645080566,0.4564576745033264,-0.025067418813705444,-0.003788820467889309,0.12520068883895874,0.4056099057197571,-0.6070762276649475,1.946403980255127,-7.751147747039795,-5.567568302154541,1.6941357851028442,54119.0,51657.0,54248.0,51945.0,-0.29999491024331576,-0.5196181808098181,0.5
2.34,TAKEOFF,incipient,1.0,0.6108468770980835,-0.007120119873434305,0.42881402373313904,0.0015182733768597245,0.04922494292259216,0.1545456349849701,0.3061544597148895,0.394654780626297,6.475264549255371,-0.4461967647075653,11.873517990112305,-4.208684921264648,55347.0,50164.0,53695.0,46303.0,0.6,0.0,0.5,-0.4141410291194916,0.595840573310852,0.46617022156715393,-0.005585467908531427,0.015812531113624573,0.12873926758766174,0.7638900279998779,-0.928337812423706,1.547661304473877,-1.5899085998535156,-0.833909809589386,0.7932676076889038,50981.0,50665.0,52037.0,48549.0,-0.3000025448675481,0.51961377298239,0.5,-0.3894551396369934,-0.5647034645080566,0.4564576745033264,-0.017415018752217293,-0.00514531135559082,0.12159352004528046,0.27464744448661804,-0.5074977278709412,1.969682216644287,-9.074748039245605,-3.0972330570220947,0.8966620564460754,54839.0,51865.0,53304.0,51944.0,-0.29999491024331576,-0.5196181808098181,0.5
2.36,TAKEOFF,incipient,1.0,0.6108468770980835,-0.007120119873434305,0.42881402373313904,0.002062547719106078,0.04633864387869835,0.14794008433818817,0.30183398723602295,0.12629207968711853,6.3676533699035645,-0.7846065163612366,10.237536430358887,-3.211060047149658,54430.0,50086.0,54738.0,46451.0,0.6,0.0,0.5,-0.4141410291194916,0.595840573310852,0.46617022156715393,-0.0037692778278142214,0.013739772140979767,0.1300276219844818,0.7067868709564209,-0.9013617634773254,1.5537898540496826,-2.8877744674682617,-0.13856005668640137,-0.9937171339988708,51151.0,52647.0,51633.0,46194.0,-0.3000025448675481,0.51961377298239,0.5,-0.3894551396369934,-0.5647034645080566,0.4564576745033264,-0.008990474976599216,-0.009046013467013836,0.11929042637348175,0.16150668263435364,-0.513229489326477,2.0027291774749756,-6.632339000701904,-1.2681238651275635,1.2386451959609985,54678.0,51062.0,53511.0,52770.0,-0.29999491024331576,-0.5196181808098181,0.5
2.38,TAKEOFF,incipient,1.0,0.6165193319320679,-0.005483254324644804,0.4451868236064911,0.0019289014162495732,0.046377621591091156,0.1435123085975647,0.27484214305877686,-0.0736643373966217,6.2362871170043945,-1.119835615158081,5.46296501159668,-3.282316207885742,54546.0,50553.0,54716.0,45962.0,0.6,0.0,0.5,-0.4141410291194916,0.595840573310852,0.46617022156715393,-0.0006781738484278321,0.011501085944473743,0.12694057822227478,0.6221738457679749,-0.9175878167152405,1.523571491241455,-3.1963624954223633,-4.445376873016357,-0.28154638409614563,51151.0,52647.0,51633.0,46194.0,-0.3000025448675481,0.51961377298239,0.5,-0.3877805769443512,-0.5666447877883911,0.4686655104160309,-0.017836473882198334,0.0009521874599158764,0.11023979634046555,0.08442694693803787,-0.5627207159996033,1.9995821714401245,-3.6707229614257812,1.2194054126739502,-0.5547914505004883,54469.0,51663.0,53850.0,52169.0,-0.29999491024331576,-0.5196181808098181,0.5
2.4,TAKEOFF,incipient,1.0,0.6165193319320679,-0.005483254324644804,0.4451868236064911,0.005824842490255833,0.041973941028118134,0.13853022456169128,0.22949691116809845,-0.14004532992839813,6.172999858856201,-2.1947360038757324,-4.264595031738281,-4.166725158691406,54100.0,51626.0,54120.0,46435.0,0.6,0.0,0.5,-0.4141410291194916,0.595840573310852,0.46617022156715393,0.007145618088543415,0.011004859581589699,0.11227167397737503,0.5497432351112366,-0.8900574445724487,1.5157334804534912,1.1831927299499512,-2.9928088188171387,1.990151047706604,52927.0,52544.0,50496.0,46858.0,-0.3000025448675481,0.51961377298239,0.5,-0.3877805769443512,-0.5666447877883911,0.4686655104160309,-0.01922622136771679,0.0030933646485209465,0.10545749962329865,-0.06880547851324081,-0.4813114106655121,2.0014140605926514,-3.0120346546173096,0.2638265788555145,-1.3245832920074463,54146.0,51859.0,54381.0,52166.0,-0.29999491024331576,-0.5196181808098181,0.5
2.42,TAKEOFF,incipient,1.0,0.6165193319320679,-0.005483254324644804,0.4451868236064911,0.006202282849699259,0.04120716452598572,0.13352814316749573,0.23775614798069,-0.04928484931588173,6.025400638580322,-2.1135971546173096,-6.865301132202148,-4.455429553985596,54033.0,51144.0,55156.0,45502.0,0.6,0.0,0.5,-0.4136178195476532,0.5977542996406555,0.4766232669353485,0.012272033840417862,0.010848727077245712,0.1033039391040802,0.6162862181663513,-0.819587767124176,1.5348800420761108,6.661152362823486,-5.59500789642334,0.34154221415519714,53583.0,51489.0,49860.0,48109.0,-0.3000025448675481,0.51961377298239,0.5,-0.3877805769443512,-0.5666447877883911,0.4686655104160309,-0.01922622136771679,0.0030933646485209465,0.10545749962329865,-0.1397017389535904,-0.4468213617801666,1.9840480089187622,-1.7952055931091309,0.468993604183197,-0.7155820727348328,54831.0,52668.0,53751.0,51415.0,-0.29999491024331576,-0.5196181808098181,0.5
2.44,TAKEOFF,incipient,1.0,0.6165193319320679,-0.005483254324644804,0.4451868236064911,0.006079560145735741,0.040500812232494354,0.1287766993045807,0.19557563960552216,0.09775710850954056,5.947310447692871,1.013230800628662,-5.489171028137207,-3.3201828002929688,53789.0,51613.0,55398.0,44991.0,0.6,0.0,0.5,-0.4136178195476532,0.5977542996406555,0.4766232669353485,0.015015561133623123,0.008729471825063229,0.10054736584424973,0.7543744444847107,-0.7611797451972961,1.5458475351333618,4.046480655670166,-2.451321840286255,0.7187210917472839,51829.0,52247.0,51799.0,47158.0,-0.3000025448675481,0.51961377298239,0.5,-0.3877805769443512,-0.5666447877883911,0.4686655104160309,-0.01843576692044735,0.003842742880806327,0.10263735800981522,-0.09108385443687439,-0.36688336730003357,1.9556556940078735,1.7429178953170776,-2.0864734649658203,-0.6294428110122681,54336.0,52157.0,54114.0,51842.0,-0.29999491024331576,-0.5196181808098181,0.5
2.46,TAKEOFF,incipient,1.0,0.6165193319320679,-0.005483254324644804,0.4451868236064911,0.005511051043868065,0.039725545793771744,0.12318751960992813,0.22835935652256012,0.22864185273647308,5.877089023590088,1.1338616609573364,-6.384171009063721,-2.9163708686828613,55358.0,51241.0,53820.0,45588.0,0.6,0.0,0.5,-0.4136178195476532,0.5977542996406555,0.4766232669353485,0.012648195028305054,0.004687714856117964,0.10628719627857208,0.7794885635375977,-0.6964144110679626,1.555250644683838,-1.3394889831542969,-3.114535093307495,-1.8307530879974365,50284.0,50750.0,53007.0,48703.0,-0.3000025448675481,0.51961377298239,0.5,-0.3877805769443512,-0.5666447877883911,0.4686655104160309,-0.02134721726179123,-0.00198545353487134,0.10467620939016342,-0.047921743243932724,-0.31983160972595215,1.903281569480896,3.3203907012939453,-1.9549309015274048,-1.8204184770584106,54728.0,51965.0,53718.0,52278.0,-0.29999491024331576,-0.5196181808098181,0.5
2.48,TAKEOFF,incipient,1.0,0.6192628145217896,-0.0017565073212608695,0.4594806134700775,0.009335813112556934,0.04562235251069069,0.12690523266792297,0.26242658495903015,0.25958847999572754,5.792766571044922,1.0977905988693237,1.5277174711227417,-3.4682579040527344,54245.0,51415.0,55029.0,45473.0,0.6,0.0,0.5,-0.4136178195476532,0.5977542996406555,0.4766232669353485,0.013464333489537239,0.002296589780598879,0.10845554620027542,0.6804139614105225,-0.6589679718017578,1.5210697650909424,-2.5839710235595703,0.36667293310165405,-3.718310832977295,51177.0,51671.0,51750.0,47870.0,-0.3000025448675481,0.51961377298239,0.5,-0.3933122456073761,-0.5661025047302246,0.4796905517578125,-0.019251951947808266,-0.001272756839171052,0.10393289476633072,-0.003765939036384225,-0.28314346075057983,1.8826398849487305,-0.1436770260334015,-2.010676145553589,-1.6997804641723633,54806.0,52123.0,53437.0,52183.0,-0.29999491024331576,-0.5196181808098181,0.5
2.5,TAKEOFF,incipient,1.0,0.6192628145217896,-0.0017565073212608695,0.4594806134700775,0.009853916242718697,0.04457814618945122,0.12772949039936066,0.2705288231372833,0.27365344762802124,5.769662380218506,3.8377034664154053,-3.927110433578491,-3.9019765853881836,54181.0,50569.0,54923.0,46395.0,0.6,0.0,0.5,-0.4136178195476532,0.5977542996406555,0.4766232669353485,0.015735702589154243,0.00012363599671516567,0.10640351474285126,0.5544931292533875,-0.6631183624267578,1.4624669551849365,-2.3607895374298096,0.1203361451625824,-2.343687057495117,51556.0,51399.0,53036.0,46977.0,-0.3000025448675481,0.51961377298239,0.5,-0.3933122456073761,-0.5661025047302246,0.4796905517578125,-0.00878893118351698,-0.005702459719032049,0.09918995201587677,0.018462365493178368,-0.2663569748401642,1.8573455810546875,0.13729605078697205,-1.0844635963439941,-1.8390178680419922,55483.0,51782.0,53092.0,52135.0,-0.29999491024331576,-0.5196181808098181,0.5
2.52,TAKEOFF,incipient,1.0,0.6192628145217896,-0.0017565073212608695,0.4594806134700775,0.016464130952954292,0.04217328503727913,0.12129341065883636,0.2901713252067566,0.33498334884643555,5.755349159240723,0.3523232638835907,-2.1158130168914795,-4.597371578216553,54523.0,51373.0,54483.0,45358.0,0.6,0.0,0.5,-0.4142276644706726,0.5993534922599792,0.4862789511680603,0.012700192630290985,0.004725109785795212,0.09123365581035614,0.44812148809432983,-0.5657269358634949,1.4994765520095825,-1.297748327255249,-6.80940580368042,-1.1606298685073853,51556.0,51399.0,53036.0,46977.0,-0.3000025448675481,0.51961377298239,0.5,-0.3933122456073761,-0.5661025047302246,0.4796905517578125,0.001322271884419024,-0.01278915535658598,0.09895622730255127,0.06785765290260315,-0.34734922647476196,1.8385504484176636,1.0104597806930542,2.9538660049438477,-1.3667553663253784,55031.0,51207.0,53539.0,52670.0,-0.29999491024331576,-0.5196181808098181,0.5
2.54,TAKEOFF,incipient,1.0,0.6192628145217896,-0.0017565073212608695,0.4594806134700775,0.025492990389466286,0.038246773183345795,0.11532117426395416,0.30430829524993896,0.3152153193950653,5.699463844299316,0.29988256096839905,0.6601176261901855,-4.147990703582764,54439.0,51088.0,54614.0,45764.0,0.6,0.0,0.5,-0.4142276644706726,0.5993534922599792,0.4862789511680603,0.01777045987546444,0.0021300052758306265,0.08344276994466782,0.4005383551120758,-0.47044068574905396,1.4822773933410645,-3.5947301387786865,-5.688924789428711,-0.0950753465294838,52415.0,52295.0,51242.0,47642.0,-0.3000025448675481,0.51961377298239,0.5,-0.3933122456073761,-0.5661025047302246,0.4796905517578125,0.001322271884419024,-0.01278915535658598,0.09895622730255127,0.11400967091321945,-0.4711433947086334,1.8196673393249512,-2.330275774002075,2.7331559658050537,-2.037259340286255,54674.0,52131.0,53715.0,51962.0,-0.29999491024331576,-0.5196181808098181,0.5
