timestamp_sec,flight_state,fault_type,fault_motor_health,cf1_X,cf1_Y,cf1_Z,cf1_VelX,cf1_VelY,cf1_VelZ,cf1_Roll,cf1_Pitch,cf1_Yaw,cf1_GyroX,cf1_GyroY,cf1_GyroZ,cf1_Motor1,cf1_Motor2,cf1_Motor3,cf1_Motor4,cf1_targ_x,cf1_targ_y,cf1_targ_z,cf2_X,cf2_Y,cf2_Z,cf2_VelX,cf2_VelY,cf2_VelZ,cf2_Roll,cf2_Pitch,cf2_Yaw,cf2_GyroX,cf2_GyroY,cf2_GyroZ,cf2_Motor1,cf2_Motor2,cf2_Motor3,cf2_Motor4,cf2_targ_x,cf2_targ_y,cf2_targ_z,cf3_X,cf3_Y,cf3_Z,cf3_VelX,cf3_VelY,cf3_VelZ,cf3_Roll,cf3_Pitch,cf3_Yaw,cf3_GyroX,cf3_GyroY,cf3_GyroZ,cf3_Motor1,cf3_Motor2,cf3_Motor3,cf3_Motor4,cf3_targ_x,cf3_targ_y,cf3_targ_z
0.008,TAKEOFF,incipient,1.0,0.6152679324150085,0.01609930209815502,0.0010307033080607653,0.0,0.0,0.0,0.0,0.0,0.0,0.0,0.0,0.0,0.0,0.0,0.0,0.0,0.6,0.0,0.5,-0.3751335144042969,0.600122332572937,0.003126541618257761,0.0,0.0,0.0,0.0,0.0,0.0,0.0,0.0,0.0,0.0,0.0,0.0,0.0,-0.3000025448675481,0.51961377298239,0.5,-0.3631388247013092,-0.49358049035072327,0.006213983055204153,0.0,0.0,0.0,0.0,0.0,0.0,0.0,0.0,0.0,0.0,0.0,0.0,0.0,-0.29999491024331576,-0.5196181808098181,0.5
0.022,TAKEOFF,incipient,1.0,0.6145274043083191,0.015631278976798058,0.001220425358042121,-0.0038739016745239496,0.0019370469963178039,-0.005061423871666193,0.34200361371040344,0.3133782744407654,1.9406986236572266,-0.09415929019451141,-0.21227353811264038,-0.19772429764270782,0.0,0.0,0.0,0.0,0.6,0.0,0.5,-0.38044753670692444,0.6055619120597839,0.004065272863954306,0.0077664353884756565,-0.007492040283977985,0.004059949424117804,0.026376234367489815,-1.3716001510620117,-1.1963697671890259,-0.15721073746681213,-0.021287521347403526,-0.1967361569404602,0.0,0.0,0.0,0.0,-0.3000025448675481,0.51961377298239,0.5,-0.3631388247013092,-0.49358049035072327,0.006213983055204153,0.025074608623981476,-0.01568775251507759,0.0015795977087691426,0.22590935230255127,0.14617858827114105,1.3861417770385742,0.10169617831707001,-0.1428818702697754,0.008381529711186886,0.0,0.0,0.0,0.0,-0.29999491024331576,-0.5196181808098181,0.5
0.043,TAKEOFF,incipient,1.0,0.6170446872711182,0.014860501512885094,-0.00029711463139392436,0.022377030923962593,0.007646218407899141,-0.0028218317311257124,0.3240627348423004,0.08851626515388489,1.9875518083572388,-0.09115942567586899,0.11442402750253677,-0.33823320269584656,0.0,0.0,0.0,0.0,0.6,0.0,0.5,-0.3781900703907013,0.6028938293457031,0.003082567360252142,-0.0034997137263417244,0.009999046102166176,0.006111134774982929,-0.10905710607767105,-1.2742204666137695,-1.1277379989624023,-0.02962547168135643,0.20283964276313782,-0.22173526883125305,0.0,0.0,0.0,0.0,-0.3000025448675481,0.51961377298239,0.5,-0.3631388247013092,-0.49358049035072327,0.006213983055204153,0.024270521476864815,-0.015417270362377167,0.0014247647486627102,0.2148960828781128,0.1568622887134552,1.416919469833374,0.10040599852800369,0.1435190737247467,0.10751378536224365,0.0,0.0,0.0,0.0,-0.29999491024331576,-0.5196181808098181,0.5
0.062,TAKEOFF,incipient,1.0,0.6170446872711182,0.014860501512885094,-0.00029711463139392436,0.016810543835163116,-0.013978159986436367,-0.0010133900213986635,0.3725328743457794,0.27332085371017456,1.9738801717758179,-0.05399623513221741,0.014307893812656403,0.025323156267404556,0.0,0.0,0.0,0.0,0.6,0.0,0.5,-0.3781900703907013,0.6028938293457031,0.003082567360252142,0.0024460512213408947,-0.008503255434334278,-0.004108819179236889,0.057179272174835205,-1.3287060260772705,-1.164297103881836,-0.016302108764648438,-0.18832701444625854,-0.10045120865106583,0.0,0.0,0.0,0.0,-0.3000025448675481,0.51961377298239,0.5,-0.3631388247013092,-0.49358049035072327,0.006213983055204153,0.02277316525578499,-0.014261583797633648,0.0016289843479171395,0.20038306713104248,0.1725175827741623,1.4622862339019775,0.12432027608156204,-0.052084993571043015,-0.15333011746406555,0.0,0.0,0.0,0.0,-0.29999491024331576,-0.5196181808098181,0.5
0.083,TAKEOFF,incipient,1.0,0.6168559193611145,0.011707063764333725,0.00041755998972803354,0.01474312786012888,-0.014360446482896805,0.0009633825975470245,0.4622321128845215,0.19543252885341644,1.8710060119628906,0.15885166823863983,-0.20105169713497162,-0.267666220664978,0.0,0.0,0.0,0.0,0.6,0.0,0.5,-0.3781900703907013,0.6028938293457031,0.003082567360252142,0.013717401772737503,-0.01624559797346592,-0.01007663831114769,0.11431796103715897,-1.4142941236495972,-1.2233091592788696,0.015283651649951935,0.23588763177394867,-0.3305322229862213,0.0,0.0,0.0,0.0,-0.3000025448675481,0.51961377298239,0.5,-0.36757802963256836,-0.4888489544391632,0.004817967768758535,-0.0057482593692839146,0.018692906945943832,-0.006955843884497881,-0.07439166307449341,0.40452632308006287,1.4811038970947266,0.13016609847545624,-0.28484123945236206,0.18048132956027985,0.0,0.0,0.0,0.0,-0.29999491024331576,-0.5196181808098181,0.5
0.102,TAKEOFF,incipient,1.0,0.6168559193611145,0.011707063764333725,0.00041755998972803354,0.01474312786012888,-0.014360446482896805,0.0009633825975470245,0.4622321128845215,0.19543252885341644,1.8710060119628906,0.15885166823863983,-0.20105169713497162,-0.267666220664978,0.0,0.0,0.0,0.0,0.6,0.0,0.5,-0.3781900703907013,0.6028938293457031,0.003082567360252142,0.013717401772737503,-0.01624559797346592,-0.01007663831114769,0.11431796103715897,-1.4142941236495972,-1.2233091592788696,0.015283651649951935,0.23588763177394867,-0.3305322229862213,0.0,0.0,0.0,0.0,-0.3000025448675481,0.51961377298239,0.5,-0.36757802963256836,-0.4888489544391632,0.004817967768758535,-0.0057482593692839146,0.018692906945943832,-0.006955843884497881,-0.07439166307449341,0.40452632308006287,1.4811038970947266,0.13016609847545624,-0.28484123945236206,0.18048132956027985,0.0,0.0,0.0,0.0,-0.29999491024331576,-0.5196181808098181,0.5
0.123,TAKEOFF,incipient,1.0,0.6168559193611145,0.011707063764333725,0.00041755998972803354,0.015874866396188736,-0.014852126128971577,0.0006145648658275604,0.45062655210494995,0.22190922498703003,1.8321524858474731,-0.03220664709806442,-0.015746841207146645,-0.009490860626101494,0.0,0.0,0.0,0.0,0.6,0.0,0.5,-0.37895387411117554,0.6027250289916992,0.0034163433592766523,0.0137539803981781,-0.016836179420351982,-0.010034761391580105,0.11220403015613556,-1.4135130643844604,-1.2255834341049194,-0.060095250606536865,-0.1440168172121048,0.15122327208518982,0.0,0.0,0.0,0.0,-0.3000025448675481,0.51961377298239,0.5,-0.36757802963256836,-0.4888489544391632,0.004817967768758535,-0.01389862596988678,0.025508861988782883,-0.010920514352619648,-0.122532919049263,0.47090911865234375,1.4067209959030151,-0.10343462228775024,-0.1254083812236786,0.1566680669784546,0.0,0.0,0.0,0.0,-0.29999491024331576,-0.5196181808098181,0.5
0.144,TAKEOFF,incipient,1.0,0.6168559193611145,0.011707063764333725,0.00041755998972803354,0.02139159105718136,-0.01844729296863079,-0.0029720694292336702,0.483052521944046,0.16006305813789368,1.7818138599395752,-0.014597407542169094,0.09694528579711914,0.1646096557378769,0.0,0.0,0.0,0.0,0.6,0.0,0.5,-0.37895387411117554,0.6027250289916992,0.0034163433592766523,-0.01799643598496914,0.0018719281069934368,0.004095256794244051,-0.03126533702015877,-1.1734648942947388,-1.1753201484680176,-0.07917766273021698,-0.4157537817955017,0.007719889748841524,0.0,0.0,0.0,0.0,-0.3000025448675481,0.51961377298239,0.5,-0.36757802963256836,-0.4888489544391632,0.004817967768758535,-0.01789400540292263,0.022729946300387383,-0.010423528961837292,-0.08730542659759521,0.49528440833091736,1.3170082569122314,-0.1834467649459839,-0.1499263346195221,0.06239158660173416,0.0,0.0,0.0,0.0,-0.29999491024331576,-0.5196181808098181,0.5
0.162,TAKEOFF,incipient,1.0,0.6168559193611145,0.011707063764333725,0.00041755998972803354,0.016605515033006668,-0.0062705716118216515,-0.0010171113535761833,0.483052521944046,0.16006305813789368,1.7818138599395752,-0.014597407542169094,0.09694528579711914,0.1646096557378769,0.0,0.0,0.0,0.0,0.6,0.0,0.5,-0.37895387411117554,0.6027250289916992,0.0034163433592766523,-0.02616185136139393,0.008825326338410378,0.010710390284657478,-0.0318337008357048,-1.1731232404708862,-1.1751903295516968,-0.16757901012897491,0.13232414424419403,0.22398532927036285,0.0,0.0,0.0,0.0,-0.3000025448675481,0.51961377298239,0.5,-0.37065258622169495,-0.4879712760448456,0.0037990950513631105,-0.01789400540292263,0.022729946300387383,-0.010423528961837292,-0.07029712200164795,0.4973764419555664,1.2633651494979858,-0.022516116499900818,0.07176105678081512,0.026361772790551186,0.0,0.0,0.0,0.0,-0.29999491024331576,-0.5196181808098181,0.5
0.182,TAKEOFF,incipient,1.0,0.6187791228294373,0.013368340209126472,0.00017532610218040645,0.017334556207060814,-0.006530976854264736,-0.0012786469887942076,0.3797336518764496,0.19791273772716522,1.8432095050811768,-0.09485052525997162,-0.013027881272137165,-0.11358285695314407,0.0,0.0,0.0,0.0,0.6,0.0,0.5,-0.37895387411117554,0.6027250289916992,0.0034163433592766523,-0.00544422771781683,-0.004519198089838028,-0.0007757843122817576,-0.12226687371730804,-1.1522639989852905,-1.1711835861206055,-0.19171594083309174,-0.010383003391325474,0.3304610550403595,0.0,0.0,0.0,0.0,-0.3000025448675481,0.51961377298239,0.5,-0.37065258622169495,-0.4879712760448456,0.0037990950513631105,-0.017285697162151337,0.02160305716097355,-0.010511774569749832,-0.06830865144729614,0.4779735207557678,1.1054203510284424,-0.1558859944343567,0.23235099017620087,0.05284954607486725,0.0,0.0,0.0,0.0,-0.29999491024331576,-0.5196181808098181,0.5
0.202,TAKEOFF,incipient,1.0,0.6187791228294373,0.013368340209126472,0.00017532610218040645,0.03157058730721474,-0.008865793235599995,-0.0037550097331404686,0.3797336518764496,0.19791273772716522,1.8432095050811768,-0.09485052525997162,-0.013027881272137165,-0.11358285695314407,0.0,0.0,0.0,0.0,0.6,0.0,0.5,-0.37895387411117554,0.6027250289916992,0.0034163433592766523,-0.011112340725958347,0.000507206073962152,0.0017808630364015698,0.025973282754421234,-1.2858573198318481,-1.233619213104248,-0.08964832872152328,-0.04688381403684616,-0.009163136593997478,0.0,0.0,0.0,0.0,-0.3000025448675481,0.51961377298239,0.5,-0.37065258622169495,-0.4879712760448456,0.0037990950513631105,-0.017346706241369247,0.021593982353806496,-0.009698298759758472,-0.06830865144729614,0.4779735207557678,1.1054203510284424,-0.1558859944343567,0.23235099017620087,0.05284954607486725,0.0,0.0,0.0,0.0,-0.29999491024331576,-0.5196181808098181,0.5
0.222,TAKEOFF,incipient,1.0,0.6187791228294373,0.013368340209126472,0.00017532610218040645,0.03377003222703934,-0.008669857867062092,-0.005238894373178482,0.39630571007728577,0.07957937568426132,1.817880392074585,-0.4348948895931244,0.0069818138144910336,-0.2616855800151825,0.0,0.0,0.0,0.0,0.6,0.0,0.5,-0.3801712095737457,0.6047438383102417,0.003312092274427414,-0.011758928187191486,0.0032566660083830357,0.0015195022569969296,-0.03479227423667908,-1.2449973821640015,-1.184607982635498,-0.26042360067367554,-0.2930844724178314,-0.06421706080436707,0.0,0.0,0.0,0.0,-0.3000025448675481,0.51961377298239,0.5,-0.37065258622169495,-0.4879712760448456,0.0037990950513631105,-0.005553406663239002,0.013477983884513378,-0.0037207920104265213,-0.059302087873220444,0.47780781984329224,1.0669420957565308,-0.2793072462081909,-0.01955914869904518,-0.0528252013027668,0.0,0.0,0.0,0.0,-0.29999491024331576,-0.5196181808098181,0.5
0.242,TAKEOFF,incipient,1.0,0.6187791228294373,0.013368340209126472,0.00017532610218040645,0.03295205533504486,-0.007871950045228004,-0.0056054675951600075,0.39630571007728577,0.07957937568426132,1.817880392074585,-0.4348948895931244,0.0069818138144910336,-0.2616855800151825,0.0,0.0,0.0,0.0,0.6,0.0,0.5,-0.3801712095737457,0.6047438383102417,0.003312092274427414,-0.012223644182085991,0.004620719701051712,0.0035140966065227985,-0.05245073884725571,-1.2515207529067993,-1.1605579853057861,0.0037153963930904865,-0.20131665468215942,-0.11415392905473709,0.0,0.0,0.0,0.0,-0.3000025448675481,0.51961377298239,0.5,-0.37065258622169495,-0.4879712760448456,0.0037990950513631105,-0.003861305071040988,0.016607895493507385,-0.002460844349116087,-0.05318247899413109,0.4211141765117645,1.1098579168319702,-0.059724871069192886,-0.11053162813186646,0.0730382651090622,0.0,0.0,0.0,0.0,-0.29999491024331576,-0.5196181808098181,0.5
0.262,TAKEOFF,incipient,1.0,0.6187791228294373,0.013368340209126472,0.00017532610218040645,0.024199051782488823,-0.009740416891872883,-0.004214029759168625,0.4214887320995331,0.19634677469730377,1.7911124229431152,-0.16142377257347107,0.14232639968395233,-0.1861322522163391,0.0,0.0,0.0,0.0,0.6,0.0,0.5,-0.3801712095737457,0.6047438383102417,0.003312092274427414,-0.010986607521772385,0.00661923922598362,0.0006736625218763947,-0.0583321787416935,-1.2550435066223145,-1.140619158744812,-0.11318906396627426,-0.33687400817871094,0.06850718706846237,0.0,0.0,0.0,0.0,-0.3000025448675481,0.51961377298239,0.5,-0.3664618134498596,-0.4902295768260956,0.004259034059941769,-0.0038119126111268997,0.01737898960709572,-0.002532380633056164,-0.010109897702932358,0.35872066020965576,1.1617143154144287,0.046508390456438065,0.080634705722332,0.02089802734553814,0.0,0.0,0.0,0.0,-0.29999491024331576,-0.5196181808098181,0.5
0.282,TAKEOFF,incipient,1.0,0.617679238319397,0.011947998777031898,-0.0004352732503321022,0.019605647772550583,-0.013249645940959454,-0.0019373225513845682,0.4202209413051605,0.19471469521522522,1.7893551588058472,-0.22997622191905975,0.11511712521314621,-0.1457981914281845,0.0,0.0,0.0,0.0,0.6,0.0,0.5,-0.3801712095737457,0.6047438383102417,0.003312092274427414,-0.010240008123219013,0.0073731644079089165,-0.0015391994966194034,-0.06448948383331299,-1.257227897644043,-1.1124050617218018,-0.05825187638401985,-0.020241517573595047,0.23601217567920685,0.0,0.0,0.0,0.0,-0.3000025448675481,0.51961377298239,0.5,-0.3664618134498596,-0.4902295768260956,0.004259034059941769,-0.0036632067058235407,0.02056894078850746,-0.0021947321947664022,-0.10430434346199036,0.4496017098426819,1.1412302255630493,0.03685416281223297,0.011992000043392181,0.053137391805648804,0.0,0.0,0.0,0.0,-0.29999491024331576,-0.5196181808098181,0.5
0.302,TAKEOFF,incipient,1.0,0.617679238319397,0.011947998777031898,-0.0004352732503321022,0.020325465127825737,-0.013210207223892212,-0.002012538956478238,0.4202209413051605,0.19471469521522522,1.7893551588058472,-0.22997622191905975,0.11511712521314621,-0.1457981914281845,0.0,0.0,0.0,0.0,0.6,0.0,0.5,-0.3801712095737457,0.6047438383102417,0.003312092274427414,-0.010504629462957382,0.0074377418495714664,-0.0015970009844750166,-0.0651501789689064,-1.2557283639907837,-1.1114400625228882,0.25269007682800293,0.004301443230360746,0.18724806606769562,0.0,0.0,0.0,0.0,-0.3000025448675481,0.51961377298239,0.5,-0.3664618134498596,-0.4902295768260956,0.004259034059941769,0.006616349797695875,0.011605401523411274,0.0014197230339050293,0.04642360657453537,0.2753634750843048,1.2331689596176147,0.002373568946495652,0.00848479475826025,-0.14244519174098969,0.0,0.0,0.0,0.0,-0.29999491024331576,-0.5196181808098181,0.5
0.322,TAKEOFF,incipient,1.0,0.617679238319397,0.011947998777031898,-0.0004352732503321022,0.029988806694746017,-0.0020580855198204517,-0.0015411630738526583,0.33031657338142395,0.11793496459722519,1.8411232233047485,-0.10634653270244598,-0.3221018612384796,-0.18613606691360474,0.0,0.0,0.0,0.0,0.6,0.0,0.5,-0.380485862493515,0.6063521504402161,0.00321376184001565,-0.009407196193933487,0.008101647719740868,0.0008852118044160306,-0.05951689928770065,-1.2723534107208252,-1.0697879791259766,0.015155112370848656,-0.18046745657920837,0.007859430275857449,0.0,0.0,0.0,0.0,-0.3000025448675481,0.51961377298239,0.5,-0.3664618134498596,-0.4902295768260956,0.004259034059941769,0.014884707517921925,0.0037755733355879784,0.0051114847883582115,0.04642360657453537,0.2753634750843048,1.2331689596176147,0.002373568946495652,0.00848479475826025,-0.14244519174098969,0.0,0.0,0.0,0.0,-0.29999491024331576,-0.5196181808098181,0.5
0.342,TAKEOFF,incipient,1.0,0.617679238319397,0.011947998777031898,-0.0004352732503321022,0.034975338727235794,-0.002905207918956876,-0.0011646220227703452,0.4007241427898407,0.18740929663181305,1.7948888540267944,-0.24655359983444214,-0.008868144825100899,-0.21555788815021515,0.0,0.0,0.0,0.0,0.6,0.0,0.5,-0.380485862493515,0.6063521504402161,0.00321376184001565,-0.00906621664762497,0.007504153065383434,-0.0022057557944208384,-0.05010739713907242,-1.270558476448059,-1.0828070640563965,-0.1311587691307068,-0.3029750883579254,-0.14593009650707245,0.0,0.0,0.0,0.0,-0.3000025448675481,0.51961377298239,0.5,-0.3664618134498596,-0.4902295768260956,0.004259034059941769,-0.00016005702491384,0.017168600112199783,0.0016255840891972184,-0.05928473174571991,0.4045954644680023,1.258248209953308,0.16554373502731323,0.024250362068414688,-0.004985692910850048,0.0,0.0,0.0,0.0,-0.29999491024331576,-0.5196181808098181,0.5
0.362,TAKEOFF,incipient,1.0,0.617679238319397,0.011947998777031898,-0.0004352732503321022,0.022685803472995758,-0.011028675362467766,-0.00043363377335481346,0.3903951048851013,0.22273243963718414,1.75788152217865,0.034403055906295776,-0.21357731521129608,0.0702962875366211,0.0,0.0,0.0,0.0,0.6,0.0,0.5,-0.380485862493515,0.6063521504402161,0.00321376184001565,-0.009429654106497765,0.006478184834122658,-0.0061445278115570545,-0.05010739713907242,-1.270558476448059,-1.0828070640563965,-0.1311587691307068,-0.3029750883579254,-0.14593009650707245,0.0,0.0,0.0,0.0,-0.3000025448675481,0.51961377298239,0.5,-0.36535337567329407,-0.48955661058425903,0.004521161783486605,-0.003442944260314107,0.020028192549943924,0.00048468567547388375,-0.06713567674160004,0.4202711582183838,1.2746846675872803,0.09262219071388245,-0.09641490131616592,0.09886682033538818,0.0,0.0,0.0,0.0,-0.29999491024331576,-0.5196181808098181,0.5
0.382,TAKEOFF,incipient,1.0,0.6172518730163574,0.011523270048201084,-1.3971923181088641e-05,0.018250547349452972,-0.010463542304933071,0.0025490194093436003,0.3905521035194397,0.22302235662937164,1.756464958190918,-0.06688201427459717,0.21543504297733307,-0.1772952675819397,0.0,0.0,0.0,0.0,0.6,0.0,0.5,-0.380485862493515,0.6063521504402161,0.00321376184001565,-0.008747301995754242,0.005805454682558775,-0.0063524069264531136,-0.04245133697986603,-1.2713980674743652,-1.1097255945205688,0.003412735415622592,-0.037333302199840546,-0.3235001266002655,0.0,0.0,0.0,0.0,-0.3000025448675481,0.51961377298239,0.5,-0.36535337567329407,-0.48955661058425903,0.004521161783486605,-0.0033842704724520445,0.020570317283272743,0.0006617268081754446,-0.018763726577162743,0.35665857791900635,1.3232451677322388,-0.1187787875533104,-0.10062076151371002,0.051974374800920486,0.0,0.0,0.0,0.0,-0.29999491024331576,-0.5196181808098181,0.5
0.402,TAKEOFF,incipient,1.0,0.6172518730163574,0.011523270048201084,-1.3971923181088641e-05,0.01839877851307392,-0.010643805377185345,0.002544115763157606,0.3886607587337494,0.22006073594093323,1.7536418437957764,-0.16413520276546478,0.016164900735020638,-0.10737592726945877,0.0,0.0,0.0,0.0,0.6,0.0,0.5,-0.380485862493515,0.6063521504402161,0.00321376184001565,-0.008540171198546886,0.006338823586702347,-0.006121443584561348,-0.045785821974277496,-1.2787439823150635,-1.0825421810150146,0.03884351998567581,-0.017068052664399147,-0.2649165093898773,0.0,0.0,0.0,0.0,-0.3000025448675481,0.51961377298239,0.5,-0.36535337567329407,-0.48955661058425903,0.004521161783486605,-0.0033043338917195797,0.02117850072681904,0.000758327660150826,-0.02040914259850979,0.3540368378162384,1.324218511581421,-0.16625943779945374,0.051256921142339706,-0.049513328820466995,0.0,0.0,0.0,0.0,-0.29999491024331576,-0.5196181808098181,0.5
0.422,TAKEOFF,incipient,1.0,0.6172518730163574,0.011523270048201084,-1.3971923181088641e-05,0.033005595207214355,-0.01132387388497591,-0.004231404047459364,0.39970868825912476,0.11478371173143387,1.7503299713134766,-0.19624833762645721,0.014542648568749428,-0.20480680465698242,0.0,0.0,0.0,0.0,0.6,0.0,0.5,-0.3804852068424225,0.6067340970039368,0.002437019720673561,-0.006369822192937136,0.007244002539664507,-0.002492672996595502,-0.049465280026197433,-1.2911186218261719,-1.057428240776062,-0.38274046778678894,-0.2798171043395996,-0.09413661807775497,0.0,0.0,0.0,0.0,-0.3000025448675481,0.51961377298239,0.5,-0.36535337567329407,-0.48955661058425903,0.004521161783486605,0.013618622906506062,0.006354412529617548,0.007665733806788921,-0.022125959396362305,0.35338813066482544,1.3252629041671753,0.12856048345565796,-0.13902416825294495,0.1571134775876999,0.0,0.0,0.0,0.0,-0.29999491024331576,-0.5196181808098181,0.5
0.442,TAKEOFF,incipient,1.0,0.6172518730163574,0.011523270048201084,-1.3971923181088641e-05,0.027854597195982933,0.010033387690782547,0.0005650781095027924,0.22846725583076477,0.15231555700302124,1.809624195098877,0.07399779558181763,-0.1688087284564972,-0.09562376886606216,0.0,0.0,0.0,0.0,0.6,0.0,0.5,-0.3804852068424225,0.6067340970039368,0.002437019720673561,-0.0064027016051113605,0.007619111333042383,-0.0023495943751186132,-0.05135499686002731,-1.2873320579528809,-1.0586987733840942,-0.15762057900428772,-0.03333253413438797,-0.088328056037426,0.0,0.0,0.0,0.0,-0.3000025448675481,0.51961377298239,0.5,-0.36535337567329407,-0.48955661058425903,0.004521161783486605,0.003930387087166309,-0.00316022546030581,0.012485967017710209,0.16282960772514343,0.30106571316719055,1.3208715915679932,-0.019646944478154182,-0.1850985437631607,0.0807165578007698,0.0,0.0,0.0,0.0,-0.29999491024331576,-0.5196181808098181,0.5
0.462,TAKEOFF,incipient,1.0,0.6172518730163574,0.011523270048201084,-1.3971923181088641e-05,0.040755171328783035,0.008195508271455765,0.0006409817142412066,0.2480563372373581,0.06352190673351288,1.7958292961120605,-0.056577060371637344,0.07975874841213226,0.05554983392357826,0.0,0.0,0.0,0.0,0.6,0.0,0.5,-0.3804852068424225,0.6067340970039368,0.002437019720673561,0.025448577478528023,-0.022565238177776337,-0.01001419685781002,0.1837078332901001,-1.514491081237793,-1.1251962184906006,-0.13642334938049316,-0.305932879447937,0.03810186684131622,0.0,0.0,0.0,0.0,-0.3000025448675481,0.51961377298239,0.5,-0.3636873662471771,-0.4930773973464966,0.006802116520702839,0.013702104799449444,-0.009384503588080406,0.013095560483634472,0.20234408974647522,0.2513984441757202,1.304299235343933,-0.07919181138277054,0.028679857030510902,0.0785282626748085,0.0,0.0,0.0,0.0,-0.29999491024331576,-0.5196181808098181,0.5
0.482,TAKEOFF,incipient,1.0,0.6219890117645264,0.01406958606094122,-0.00036061901482753456,0.04284145310521126,0.007774899713695049,0.00150494824629277,0.25454339385032654,0.054051198065280914,1.7864497900009155,0.044677719473838806,0.03382107615470886,-0.15368852019309998,0.0,0.0,0.0,0.0,0.6,0.0,0.5,-0.3804852068424225,0.6067340970039368,0.002437019720673561,0.02336093969643116,-0.02389840967953205,-0.007230231538414955,0.1806659996509552,-1.5068466663360596,-1.1420295238494873,-0.07350070774555206,0.1261497288942337,-0.13993801176548004,0.0,0.0,0.0,0.0,-0.3000025448675481,0.51961377298239,0.5,-0.3636873662471771,-0.4930773973464966,0.006802116520702839,0.011343086138367653,-0.009553675539791584,0.018551383167505264,0.20234408974647522,0.2513984441757202,1.304299235343933,-0.07919181138277054,0.028679857030510902,0.0785282626748085,0.0,0.0,0.0,0.0,-0.29999491024331576,-0.5196181808098181,0.5
0.502,TAKEOFF,incipient,1.0,0.6219890117645264,0.01406958606094122,-0.00036061901482753456,0.04395649582147598,0.008373879827558994,0.0013644176069647074,0.25391751527786255,0.054135795682668686,1.784117341041565,0.025489021092653275,0.13911095261573792,-0.19355179369449615,0.0,0.0,0.0,0.0,0.6,0.0,0.5,-0.3804852068424225,0.6067340970039368,0.002437019720673561,0.011709715239703655,-0.014478074386715889,-0.0029458364006131887,0.09949367493391037,-1.4266473054885864,-1.1300480365753174,-0.046395860612392426,0.05117760971188545,-0.11425526440143585,0.0,0.0,0.0,0.0,-0.3000025448675481,0.51961377298239,0.5,-0.3636873662471771,-0.4930773973464966,0.006802116520702839,0.01132834330201149,-0.010180540382862091,0.018784698098897934,0.20131483674049377,0.25138136744499207,1.3046716451644897,-0.1749647706747055,0.21376071870326996,0.011263422667980194,0.0,0.0,0.0,0.0,-0.29999491024331576,-0.5196181808098181,0.5
0.522,TAKEOFF,incipient,1.0,0.6219890117645264,0.01406958606094122,-0.00036061901482753456,0.04459912329912186,0.0089272977784276,0.0012768504675477743,0.2547895312309265,0.05191773921251297,1.781359076499939,-0.1815623939037323,0.18711212277412415,0.04408049210906029,0.0,0.0,0.0,0.0,0.6,0.0,0.5,-0.37983399629592896,0.6047597527503967,0.0026145046576857567,0.00938879232853651,-0.009880075231194496,-0.0016610764432698488,0.09949367493391037,-1.4266473054885864,-1.1300480365753174,-0.046395860612392426,0.05117760971188545,-0.11425526440143585,0.0,0.0,0.0,0.0,-0.3000025448675481,0.51961377298239,0.5,-0.3636873662471771,-0.4930773973464966,0.006802116520702839,0.01135439332574606,-0.010551722720265388,0.019004549831151962,0.1985311657190323,0.24969899654388428,1.3056306838989258,-0.026069605723023415,-0.21756330132484436,0.3287799656391144,0.0,0.0,0.0,0.0,-0.29999491024331576,-0.5196181808098181,0.5
0.542,TAKEOFF,incipient,1.0,0.6219890117645264,0.01406958606094122,-0.00036061901482753456,0.015990793704986572,-0.009208682924509048,-0.0018080469453707337,0.38036733865737915,0.26387155055999756,1.7354581356048584,-0.03941985219717026,-0.038510944694280624,-0.35593506693840027,0.0,0.0,0.0,0.0,0.6,0.0,0.5,-0.37983399629592896,0.6047597527503967,0.0026145046576857567,0.008625750429928303,-0.006849285215139389,-0.001295251538977027,0.04972682148218155,-1.3981711864471436,-1.1000419855117798,-0.20860004425048828,-0.24938029050827026,0.16396795213222504,0.0,0.0,0.0,0.0,-0.3000025448675481,0.51961377298239,0.5,-0.3636873662471771,-0.4930773973464966,0.006802116520702839,0.011716296896338463,-0.010851833038032055,0.018861809745430946,0.1981062889099121,0.25253668427467346,1.307735562324524,-0.04918568208813667,-0.03831474483013153,0.1293306201696396,0.0,0.0,0.0,0.0,-0.29999491024331576,-0.5196181808098181,0.5
0.562,TAKEOFF,incipient,1.0,0.6219890117645264,0.01406958606094122,-0.00036061901482753456,0.020659979432821274,-0.010823728516697884,-0.005335879046469927,0.38036733865737915,0.26387155055999756,1.7354581356048584,-0.03941985219717026,-0.038510944694280624,-0.35593506693840027,0.0,0.0,0.0,0.0,0.6,0.0,0.5,-0.37983399629592896,0.6047597527503967,0.0026145046576857567,0.007852527312934399,-0.0059505547396838665,-0.0026496341452002525,0.039200685918331146,-1.3902004957199097,-1.0889651775360107,0.05450048670172691,0.14322473108768463,0.31029602885246277,0.0,0.0,0.0,0.0,-0.3000025448675481,0.51961377298239,0.5,-0.36261677742004395,-0.4938974678516388,0.00801326148211956,0.015808874741196632,-0.010023475624620914,0.010114428587257862,0.1983456164598465,0.25249266624450684,1.308744192123413,0.04783951863646507,-0.04025133699178696,0.13421984016895294,0.0,0.0,0.0,0.0,-0.29999491024331576,-0.5196181808098181,0.5
0.582,TAKEOFF,incipient,1.0,0.6192079782485962,0.014069348573684692,-0.0006574952858500183,0.010910240933299065,-0.0006398212281055748,0.0020276454742997885,0.3905012607574463,0.22901001572608948,1.7320181131362915,0.0069937994703650475,-0.01756802760064602,-0.3104507029056549,0.0,0.0,0.0,0.0,0.6,0.0,0.5,-0.37983399629592896,0.6047597527503967,0.0026145046576857567,0.007244018372148275,-0.005060470663011074,-0.002025048015639186,0.039200685918331146,-1.3902004957199097,-1.0889651775360107,0.05450048670172691,0.14322473108768463,0.31029602885246277,0.0,0.0,0.0,0.0,-0.3000025448675481,0.51961377298239,0.5,-0.36261677742004395,-0.4938974678516388,0.00801326148211956,0.012114307843148708,-0.00960632599890232,0.0194335225969553,0.1884087324142456,0.2273717075586319,1.3625187873840332,0.288251131772995,-0.052827443927526474,-0.07408639788627625,0.0,0.0,0.0,0.0,-0.29999491024331576,-0.5196181808098181,0.5
0.602,TAKEOFF,incipient,1.0,0.6192079782485962,0.014069348573684692,-0.0006574952858500183,0.007698503322899342,0.0026753535494208336,0.0022183533292263746,0.28164273500442505,0.32588234543800354,1.7732139825820923,-0.022549597546458244,0.0518772192299366,-0.1981753408908844,0.0,0.0,0.0,0.0,0.6,0.0,0.5,-0.37983399629592896,0.6047597527503967,0.0026145046576857567,0.006735194008797407,-0.00402512401342392,0.00024576205760240555,0.031562548130750656,-1.3857393264770508,-1.072767972946167,0.03912078216671944,-0.0020372841972857714,0.19343417882919312,0.0,0.0,0.0,0.0,-0.3000025448675481,0.51961377298239,0.5,-0.36261677742004395,-0.4938974678516388,0.00801326148211956,0.012456530705094337,-0.00975620374083519,0.018936332315206528,0.1797197163105011,0.2571263909339905,1.301000714302063,0.1758437305688858,0.06598258763551712,0.12283139675855637,0.0,0.0,0.0,0.0,-0.29999491024331576,-0.5196181808098181,0.5
0.622,TAKEOFF,incipient,1.0,0.6192079782485962,0.014069348573684692,-0.0006574952858500183,0.018771709874272346,-0.000741167867090553,0.002744167111814022,0.3134485185146332,0.2390182614326477,1.7662888765335083,0.023455018177628517,0.2932676076889038,-0.02947475016117096,0.0,0.0,0.0,0.0,0.6,0.0,0.5,-0.3801157474517822,0.605987548828125,0.0028371692169457674,0.006518358364701271,-0.002890185918658972,0.002405997598543763,0.009900297969579697,-1.3749678134918213,-1.004315733909607,0.015713291242718697,0.10267198085784912,0.06419187784194946,0.0,0.0,0.0,0.0,-0.3000025448675481,0.51961377298239,0.5,-0.36261677742004395,-0.4938974678516388,0.00801326148211956,0.011208015494048595,-0.0085791340097785,0.02281169220805168,0.182442769408226,0.2576045095920563,1.3023924827575684,-0.0542992427945137,0.1472412794828415,0.17048852145671844,0.0,0.0,0.0,0.0,-0.29999491024331576,-0.5196181808098181,0.5
0.642,TAKEOFF,incipient,1.0,0.6192079782485962,0.014069348573684692,-0.0006574952858500183,0.010705207474529743,-0.0034942813217639923,0.005628201179206371,0.3346328139305115,0.3034554123878479,1.730246663093567,-0.06523061543703079,0.09002676606178284,-0.08292116969823837,0.0,0.0,0.0,0.0,0.6,0.0,0.5,-0.3801157474517822,0.605987548828125,0.0028371692169457674,0.006770128384232521,-0.0030706964898854494,0.002236385131254792,0.009900297969579697,-1.3749678134918213,-1.004315733909607,0.015713291242718697,0.10267198085784912,0.06419187784194946,0.0,0.0,0.0,0.0,-0.3000025448675481,0.51961377298239,0.5,-0.36261677742004395,-0.4938974678516388,0.00801326148211956,-0.023975646123290062,0.011720297858119011,-0.004108757711946964,0.012608516030013561,0.5162084102630615,1.216530442237854,-0.08089319616556168,-0.012971654534339905,-0.12497079372406006,0.0,0.0,0.0,0.0,-0.29999491024331576,-0.5196181808098181,0.5
0.662,TAKEOFF,incipient,1.0,0.6192079782485962,0.014069348573684692,-0.0006574952858500183,0.01891069859266281,-0.004478468094021082,0.0008507902966812253,0.34635525941848755,0.23920392990112305,1.728015422821045,0.17445185780525208,0.11346753686666489,-0.15023382008075714,0.0,0.0,0.0,0.0,0.6,0.0,0.5,-0.3801157474517822,0.605987548828125,0.0028371692169457674,0.0055788615718483925,-0.0028069105464965105,0.0006989192916080356,0.007146418560296297,-1.3760432004928589,-1.0060769319534302,0.008854113519191742,-0.010974988341331482,0.13056312501430511,0.0,0.0,0.0,0.0,-0.3000025448675481,0.51961377298239,0.5,-0.370595782995224,-0.4879675805568695,0.005381737370043993,-0.027075035497546196,0.013858690857887268,-0.005077884532511234,-0.002018957631662488,0.5283072590827942,1.1590315103530884,-0.10374023020267487,0.149276465177536,0.05762714520096779,0.0,0.0,0.0,0.0,-0.29999491024331576,-0.5196181808098181,0.5
0.682,TAKEOFF,incipient,1.0,0.6186137199401855,0.014212374575436115,9.540699102217332e-05,0.016367679461836815,0.0010429566027596593,0.001714044250547886,0.3038322627544403,0.2594713866710663,1.7571817636489868,-0.04073936864733696,-0.10334640741348267,-0.45592767000198364,0.0,0.0,0.0,0.0,0.6,0.0,0.5,-0.3801157474517822,0.605987548828125,0.0028371692169457674,0.004774666856974363,-0.0013930427376180887,0.002603493630886078,-0.0050135343335568905,-1.358980417251587,-0.9867659211158752,0.07705171406269073,-0.11607380211353302,-0.027866311371326447,0.0,0.0,0.0,0.0,-0.3000025448675481,0.51961377298239,0.5,-0.370595782995224,-0.4879675805568695,0.005381737370043993,-0.027773678302764893,0.014214408583939075,-0.0052818357944488525,-0.002018957631662488,0.5283072590827942,1.1590315103530884,-0.10374023020267487,0.149276465177536,0.05762714520096779,0.0,0.0,0.0,0.0,-0.29999491024331576,-0.5196181808098181,0.5
0.702,TAKEOFF,incipient,1.0,0.6186137199401855,0.014212374575436115,9.540699102217332e-05,0.02288695052266121,0.000153141823830083,-0.0012663969537243247,0.315402090549469,0.21125228703022003,1.7481000423431396,-0.1852034628391266,-0.2568705081939697,-0.23316329717636108,0.0,0.0,0.0,0.0,0.6,0.0,0.5,-0.3801157474517822,0.605987548828125,0.0028371692169457674,0.0044587221927940845,-0.003253821050748229,-0.0014048349112272263,0.010208568535745144,-1.3597314357757568,-1.012985348701477,-0.14608830213546753,0.22142811119556427,0.05226129665970802,0.0,0.0,0.0,0.0,-0.3000025448675481,0.51961377298239,0.5,-0.370595782995224,-0.4879675805568695,0.005381737370043993,-0.011625606566667557,0.002483168849721551,-0.006546575576066971,-0.003861510893329978,0.5249249935150146,1.160783052444458,0.01337673794478178,-0.07086324691772461,-0.035065457224845886,0.0,0.0,0.0,0.0,-0.29999491024331576,-0.5196181808098181,0.5
0.722,TAKEOFF,incipient,1.0,0.6186137199401855,0.014212374575436115,9.540699102217332e-05,0.025773195549845695,0.0008170465007424355,-0.0035722919274121523,0.30942007899284363,0.19263102114200592,1.7380785942077637,-0.05758450925350189,-0.3255159258842468,-0.03239946439862251,0.0,0.0,0.0,0.0,0.6,0.0,0.5,-0.3799629211425781,0.60574871301651,0.0025363110471516848,0.0048965997993946075,-0.004597358405590057,-0.00452313432469964,0.02038562297821045,-1.3624274730682373,-1.0235494375228882,-0.15090174973011017,-0.24478985369205475,-0.036381445825099945,0.0,0.0,0.0,0.0,-0.3000025448675481,0.51961377298239,0.5,-0.370595782995224,-0.4879675805568695,0.005381737370043993,-0.011804092675447464,0.002634030533954501,-0.006423032842576504,0.10513328015804291,0.38222646713256836,1.2265965938568115,-0.02714294195175171,0.05233559384942055,0.027566419914364815,0.0,0.0,0.0,0.0,-0.29999491024331576,-0.5196181808098181,0.5
0.742,TAKEOFF,incipient,1.0,0.6186137199401855,0.014212374575436115,9.540699102217332e-05,0.019136160612106323,-0.003299834905192256,-0.0026270572561770678,0.3385474979877472,0.24394524097442627,1.7056095600128174,0.11172887682914734,-0.14899814128875732,-0.3176078200340271,0.0,0.0,0.0,0.0,0.6,0.0,0.5,-0.3799629211425781,0.60574871301651,0.0025363110471516848,0.004654003772884607,-0.00507505564019084,-0.0057355789467692375,0.02038562297821045,-1.3624274730682373,-1.0235494375228882,-0.15090174973011017,-0.24478985369205475,-0.036381445825099945,0.0,0.0,0.0,0.0,-0.3000025448675481,0.51961377298239,0.5,-0.370595782995224,-0.4879675805568695,0.005381737370043993,-0.011825206689536572,0.0026759179309010506,-0.00603565014898777,0.10393001139163971,0.38009336590766907,1.2282378673553467,0.12076069414615631,-0.03160509467124939,-0.12604524195194244,0.0,0.0,0.0,0.0,-0.29999491024331576,-0.5196181808098181,0.5
0.762,TAKEOFF,incipient,1.0,0.6186137199401855,0.014212374575436115,9.540699102217332e-05,0.022792231291532516,-0.004356669262051582,-0.00604593101888895,0.34768146276474,0.21695706248283386,1.7033097743988037,0.06340090930461884,0.1942259967327118,-0.12941840291023254,0.0,0.0,0.0,0.0,0.6,0.0,0.5,-0.3799629211425781,0.60574871301651,0.0025363110471516848,0.004629218950867653,-0.004967563785612583,-0.005658888723701239,0.02622118405997753,-1.3584632873535156,-1.0475322008132935,-0.21162234246730804,-0.024623319506645203,-0.12576930224895477,0.0,0.0,0.0,0.0,-0.3000025448675481,0.51961377298239,0.5,-0.3660697937011719,-0.49205097556114197,0.005786512978374958,0.0067269266583025455,-0.016505494713783264,0.0026485563721507788,0.10448530316352844,0.3810746669769287,1.2273198366165161,0.04182800278067589,-0.20842555165290833,-0.16682900488376617,0.0,0.0,0.0,0.0,-0.29999491024331576,-0.5196181808098181,0.5
0.782,TAKEOFF,incipient,1.0,0.6208597421646118,0.0106325913220644,-0.0014015112537890673,0.023307131603360176,-0.004077444784343243,-0.006334755569696426,0.3488318920135498,0.21613530814647675,1.7022812366485596,-0.1986759454011917,0.04105130583047867,-0.14120438694953918,0.0,0.0,0.0,0.0,0.6,0.0,0.5,-0.3799629211425781,0.60574871301651,0.0025363110471516848,0.004841339308768511,-0.005278118886053562,-0.005711203441023827,0.024217719212174416,-1.357328176498413,-1.0494672060012817,-0.033042021095752716,-0.05864662677049637,-0.03849256783723831,0.0,0.0,0.0,0.0,-0.3000025448675481,0.51961377298239,0.5,-0.3660697937011719,-0.49205097556114197,0.005786512978374958,0.01468732301145792,-0.022612836211919785,0.004480655770748854,0.2605718672275543,0.23030412197113037,1.2431728839874268,-0.07615428417921066,0.13961809873580933,0.03913847357034683,0.0,0.0,0.0,0.0,-0.29999491024331576,-0.5196181808098181,0.5
0.802,TAKEOFF,incipient,1.0,0.6208597421646118,0.0106325913220644,-0.0014015112537890673,-0.0030043059960007668,0.011298454366624355,0.0011664475314319134,0.22969146072864532,0.3992743492126465,1.7317471504211426,-0.16012993454933167,0.23404665291309357,0.016773808747529984,0.0,0.0,0.0,0.0,0.6,0.0,0.5,-0.3799629211425781,0.60574871301651,0.0025363110471516848,0.005113697145134211,-0.005587812978774309,-0.006266188807785511,0.02483236975967884,-1.3606668710708618,-1.0624397993087769,-0.07307177037000656,-0.38827553391456604,0.03343694284558296,0.0,0.0,0.0,0.0,-0.3000025448675481,0.51961377298239,0.5,-0.3660697937011719,-0.49205097556114197,0.005786512978374958,0.01511597353965044,-0.02319888025522232,0.004766090773046017,0.30485716462135315,0.16611874103546143,1.289117693901062,-0.17562413215637207,0.02797587402164936,-0.004546682815998793,0.0,0.0,0.0,0.0,-0.29999491024331576,-0.5196181808098181,0.5
0.822,TAKEOFF,incipient,1.0,0.6208597421646118,0.0106325913220644,-0.0014015112537890673,-0.005719197914004326,0.010774229653179646,0.0015059051802381873,0.23503313958644867,0.4184463918209076,1.691352128982544,-0.2177318036556244,0.0918886587023735,-0.27662762999534607,0.0,0.0,0.0,0.0,0.6,0.0,0.5,-0.38017892837524414,0.6060322523117065,0.0017404721584171057,0.0010902995709329844,0.00023136843810789287,-0.003633595071732998,0.02483236975967884,-1.3606668710708618,-1.0624397993087769,-0.07307177037000656,-0.38827553391456604,0.03343694284558296,0.0,0.0,0.0,0.0,-0.3000025448675481,0.51961377298239,0.5,-0.3660697937011719,-0.49205097556114197,0.005786512978374958,0.00020532021881081164,-0.005588907282799482,0.0014394422760233283,0.10650667548179626,0.34653183817863464,1.2600256204605103,0.24453754723072052,0.15988688170909882,0.02800806239247322,0.0,0.0,0.0,0.0,-0.29999491024331576,-0.5196181808098181,0.5
0.842,TAKEOFF,incipient,1.0,0.6208597421646118,0.0106325913220644,-0.0014015112537890673,-0.007200040388852358,0.010793307796120644,0.0010757932905107737,0.23693764209747314,0.4219636917114258,1.6498898267745972,0.12233559042215347,-0.051438502967357635,0.006653003394603729,0.0,0.0,0.0,0.0,0.6,0.0,0.5,-0.38017892837524414,0.6060322523117065,0.0017404721584171057,0.0008102190913632512,-0.0002733911678660661,-0.005072496831417084,-0.02006993070244789,-1.3320252895355225,-1.0704725980758667,-0.07067140936851501,-0.10764317214488983,-0.0023456010967493057,0.0,0.0,0.0,0.0,-0.3000025448675481,0.51961377298239,0.5,-0.3660697937011719,-0.49205097556114197,0.005786512978374958,-0.0004413421265780926,-0.005504172760993242,0.002807259326800704,0.1553547978401184,0.2862287163734436,1.2646692991256714,0.08609568327665329,-0.03592199087142944,-0.005176830105483532,0.0,0.0,0.0,0.0,-0.29999491024331576,-0.5196181808098181,0.5
0.862,TAKEOFF,incipient,1.0,0.6208597421646118,0.0106325913220644,-0.0014015112537890673,0.010279455222189426,0.002055102027952671,0.003267112886533141,0.19794794917106628,0.3353584110736847,1.722230315208435,0.016707314178347588,0.02405994012951851,-0.04253777116537094,0.0,0.0,0.0,0.0,0.6,0.0,0.5,-0.38017892837524414,0.6060322523117065,0.0017404721584171057,0.0007818083395250142,-0.0007690618513152003,-0.005960671231150627,-0.017893005162477493,-1.331209659576416,-1.086692452430725,0.06363052874803543,-0.058801840990781784,0.09994553029537201,0.0,0.0,0.0,0.0,-0.3000025448675481,0.51961377298239,0.5,-0.36666810512542725,-0.49166572093963623,0.005963542964309454,-0.00024028445477597415,-0.00543790590018034,0.0026076086796820164,0.1545417606830597,0.28765004873275757,1.2136523723602295,0.09381721913814545,-0.10610557347536087,0.09471088647842407,0.0,0.0,0.0,0.0,-0.29999491024331576,-0.5196181808098181,0.5
0.883,TAKEOFF,incipient,1.0,0.6182446479797363,0.014828629791736603,0.00011900600657099858,0.0039735883474349976,0.01705554686486721,0.00325768836773932,0.19794794917106628,0.3353584110736847,1.722230315208435,0.016707314178347588,0.02405994012951851,-0.04253777116537094,0.0,0.0,0.0,0.0,0.6,0.0,0.5,-0.38017892837524414,0.6060322523117065,0.0017404721584171057,0.0002272243582410738,0.0008832503808662295,-0.0024560883175581694,-0.028903957456350327,-1.327040433883667,-1.0717341899871826,-0.028043238446116447,-0.05435406416654587,0.0751810073852539,0.0,0.0,0.0,0.0,-0.3000025448675481,0.51961377298239,0.5,-0.36666810512542725,-0.49166572093963623,0.005963542964309454,-0.0010805608471855521,-0.005111513193696737,0.00429378729313612,0.15350189805030823,0.28906965255737305,1.2143052816390991,-0.03450234606862068,0.2271275669336319,-0.012918339110910892,0.0,0.0,0.0,0.0,-0.29999491024331576,-0.5196181808098181,0.5
0.902,TAKEOFF,incipient,1.0,0.6182446479797363,0.014828629791736603,0.00011900600657099858,0.0185711607336998,0.022036097943782806,0.004423976875841618,0.11674605309963226,0.2629047930240631,1.8446154594421387,-0.2952679991722107,-0.12597335875034332,-0.21040226519107819,0.0,0.0,0.0,0.0,0.6,0.0,0.5,-0.38017892837524414,0.6060322523117065,0.0017404721584171057,0.00031877547735348344,0.0019272583303973079,0.0010969333816319704,-0.03998289629817009,-1.3283387422561646,-1.037244200706482,0.14095844328403473,0.10227116197347641,0.032806869596242905,0.0,0.0,0.0,0.0,-0.3000025448675481,0.51961377298239,0.5,-0.36666810512542725,-0.49166572093963623,0.005963542964309454,-0.0016006166115403175,-0.004621031694114208,0.005412248428910971,0.149271622300148,0.2933107316493988,1.1696805953979492,-0.021303437650203705,-0.04891270399093628,0.06965439766645432,0.0,0.0,0.0,0.0,-0.29999491024331576,-0.5196181808098181,0.5
0.922,TAKEOFF,incipient,1.0,0.6182446479797363,0.014828629791736603,0.00011900600657099858,0.0185711607336998,0.022036097943782806,0.004423976875841618,0.11674605309963226,0.2629047930240631,1.8446154594421387,-0.2952679991722107,-0.12597335875034332,-0.21040226519107819,0.0,0.0,0.0,0.0,0.6,0.0,0.5,-0.38014349341392517,0.6064626574516296,0.0021759779192507267,0.00031877547735348344,0.0019272583303973079,0.0010969333816319704,-0.03998289629817009,-1.3283387422561646,-1.037244200706482,0.14095844328403473,0.10227116197347641,0.032806869596242905,0.0,0.0,0.0,0.0,-0.3000025448675481,0.51961377298239,0.5,-0.36666810512542725,-0.49166572093963623,0.005963542964309454,-0.0016006166115403175,-0.004621031694114208,0.005412248428910971,0.149271622300148,0.2933107316493988,1.1696805953979492,-0.021303437650203705,-0.04891270399093628,0.06965439766645432,0.0,0.0,0.0,0.0,-0.29999491024331576,-0.5196181808098181,0.5
0.942,TAKEOFF,incipient,1.0,0.6182446479797363,0.014828629791736603,0.00011900600657099858,0.011873144656419754,0.004224192351102829,0.0006389396730810404,0.3109118342399597,0.2782822251319885,1.7947744131088257,0.10909842699766159,-0.24487577378749847,-0.06367766857147217,0.0,0.0,0.0,0.0,0.6,0.0,0.5,-0.38014349341392517,0.6064626574516296,0.0021759779192507267,-0.00020153164223302156,0.0007777739083394408,-4.770286977873184e-05,-0.028520580381155014,-1.3243484497070312,-1.0495864152908325,0.16718152165412903,0.10324525833129883,-0.18286438286304474,0.0,0.0,0.0,0.0,-0.3000025448675481,0.51961377298239,0.5,-0.36666810512542725,-0.49166572093963623,0.005963542964309454,-0.004672741051763296,0.001518996781669557,-8.540058479411528e-05,0.09228061884641647,0.3214961588382721,1.1524906158447266,0.06887838989496231,-0.07161755859851837,0.05669981613755226,0.0,0.0,0.0,0.0,-0.29999491024331576,-0.5196181808098181,0.5
0.962,TAKEOFF,incipient,1.0,0.6182446479797363,0.014828629791736603,0.00011900600657099858,0.007525459863245487,0.0019280820852145553,-0.00024243943335022777,0.3306279480457306,0.3100723326206207,1.759143352508545,0.038949452340602875,0.07565342634916306,-0.011324847117066383,0.0,0.0,0.0,0.0,0.6,0.0,0.5,-0.38014349341392517,0.6064626574516296,0.0021759779192507267,-2.2214922864804976e-05,0.0002770208811853081,-0.0023931923788040876,-0.028520580381155014,-1.3243484497070312,-1.0495864152908325,0.16718152165412903,0.10324525833129883,-0.18286438286304474,0.0,0.0,0.0,0.0,-0.3000025448675481,0.51961377298239,0.5,-0.36913561820983887,-0.48962247371673584,0.005854061804711819,-0.004872598685324192,0.001423305249772966,-0.00015230639837682247,0.09159471094608307,0.3227083384990692,1.1515583992004395,-0.1244485080242157,0.018356923013925552,-0.12542422115802765,0.0,0.0,0.0,0.0,-0.29999491024331576,-0.5196181808098181,0.5
0.982,TAKEOFF,incipient,1.0,0.6164348125457764,0.013268223032355309,-0.00013386202044785023,0.007661560084670782,0.0017168087651953101,-0.0006444038590416312,0.3295179605484009,0.30939996242523193,1.758994221687317,0.12219816446304321,-0.02092990092933178,-0.1775965392589569,0.0,0.0,0.0,0.0,0.6,0.0,0.5,-0.38014349341392517,0.6064626574516296,0.0021759779192507267,0.00021967064822092652,0.0003724296984728426,-0.002595350379124284,-0.02333104982972145,-1.3240313529968262,-1.062065839767456,-0.004173674155026674,-0.08233650028705597,-0.2659548819065094,0.0,0.0,0.0,0.0,-0.3000025448675481,0.51961377298239,0.5,-0.36913561820983887,-0.48962247371673584,0.005854061804711819,-0.009343459270894527,0.006656954064965248,-0.0010535935871303082,0.0491182915866375,0.359976589679718,1.1304490566253662,-0.06363055109977722,-0.021848835051059723,0.13229916989803314,0.0,0.0,0.0,0.0,-0.29999491024331576,-0.5196181808098181,0.5
1.002,TAKEOFF,incipient,1.0,0.6182446479797363,0.014828629791736603,0.00011900600657099858,0.0185711607336998,0.022036097943782806,0.004423976875841618,0.11674605309963226,0.2629047930240631,1.8446154594421387,-0.2952679991722107,-0.12597335875034332,-0.21040226519107819,0.0,0.0,0.0,0.0,-0.19394985895920877,0.5677882106998199,0.5,-0.38014349341392517,0.6064626574516296,0.0021759779192507267,8.020420500542969e-05,0.0014346134848892689,0.0020995349623262882,-0.03998289629817009,-1.3283387422561646,-1.037244200706482,0.14095844328403473,0.10227116197347641,0.032806869596242905,0.0,0.0,0.0,0.0,-0.39348338059547944,-0.4529578669094434,0.5,-0.36666810512542725,-0.49166572093963623,0.005963542964309454,-0.0016006166115403175,-0.004621031694114208,0.005412248428910971,0.1449746936559677,0.29625198245048523,1.1242989301681519,-0.13223518431186676,-0.039486225694417953,0.06093275919556618,0.0,0.0,0.0,0.0,0.5893309019222887,-0.1126458522958649,0.5
1.022,TAKEOFF,incipient,1.0,0.6164348125457764,0.013268223032355309,-0.00013386202044785023,0.00742566492408514,0.0016817512223497033,-0.0008093164651654661,0.3274255096912384,0.31317171454429626,1.756617784500122,0.019507378339767456,0.10794345289468765,-0.06300761550664902,0.0,0.0,0.0,0.0,-0.22217403871606023,0.5573497075630295,0.5,-0.380207359790802,0.606325089931488,0.002598259598016739,0.0008237656438723207,0.003706743009388447,0.006203119643032551,-0.03649437054991722,-1.3259308338165283,-1.0341498851776123,0.04896460473537445,0.05376122146844864,-0.053314030170440674,0.0,0.0,0.0,0.0,-0.370277802379744,-0.47211688072428337,0.5,-0.36913561820983887,-0.48962247371673584,0.005854061804711819,-0.009626402519643307,0.006457814481109381,-0.0014521586708724499,0.04754075035452843,0.3599923253059387,1.1302745342254639,0.01454995572566986,-0.2943936884403229,-0.055898845195770264,0.0,0.0,0.0,0.0,0.5942375893275859,-0.08295593667809069,0.5
1.042,TAKEOFF,incipient,1.0,0.6164348125457764,0.013268223032355309,-0.00013386202044785023,0.0074637397192418575,0.0019029948161914945,-0.0008357815095223486,0.32624924182891846,0.31175512075424194,1.753806233406067,0.007819806225597858,0.07347651571035385,-0.14349450170993805,0.0,0.0,0.0,0.0,-0.22682563177456475,0.5554728911207725,0.5,-0.380207359790802,0.606325089931488,0.002598259598016739,0.0008413129253312945,0.004900651518255472,0.00816760491579771,-0.0536905936896801,-1.3281279802322388,-0.9698068499565125,-0.11196243017911911,0.10848964005708694,0.023960905149579048,0.0,0.0,0.0,0.0,-0.3663180397749073,-0.4751958477674962,0.5,-0.36913561820983887,-0.48962247371673584,0.005854061804711819,0.022464390844106674,-0.01729435846209526,-0.002327254042029381,0.24196267127990723,0.10292027145624161,1.1962389945983887,0.053177207708358765,0.1314215511083603,0.14573140442371368,0.0,0.0,0.0,0.0,0.5949103229328214,-0.07798530417948037,0.5
1.062,TAKEOFF,incipient,1.0,0.6164348125457764,0.013268223032355309,-0.00013386202044785023,0.0339934416115284,-0.003957829903811216,-0.003604570170864463,0.32624924182891846,0.31175512075424194,1.753806233406067,0.007819806225597858,0.07347651571035385,-0.14349450170993805,0.0,0.0,0.0,0.0,-0.23146137239420816,0.5535572536688411,0.5,-0.380207359790802,0.606325089931488,0.002598259598016739,0.0006569224642589688,0.0049796332605183125,0.00794061366468668,-0.054539505392313004,-1.3318175077438354,-0.9699068665504456,0.01581640914082527,-0.07510455697774887,-0.1777232438325882,0.0,0.0,0.0,0.0,-0.3623326758555991,-0.4782416042204205,0.5,-0.36553141474723816,-0.4915638864040375,0.005093682557344437,0.023167017847299576,-0.017943833023309708,-0.002493996173143387,0.24196267127990723,0.10292027145624161,1.1962389945983887,0.053177207708358765,0.1314215511083603,0.14573140442371368,0.0,0.0,0.0,0.0,0.5955414793166101,-0.07300922142704779,0.5
1.082,TAKEOFF,incipient,1.0,0.6204344034194946,0.01592918112874031,0.0001757288264343515,0.02971692755818367,0.019751328974962234,0.001615938264876604,0.18999643623828888,0.15098586678504944,1.8144725561141968,0.01097846683114767,-0.007283391896635294,-0.08515036851167679,0.0,0.0,0.0,0.0,-0.23608093659134638,0.5516029290877204,0.5,-0.380207359790802,0.606325089931488,0.002598259598016739,-0.00032608117908239365,0.0014202299062162638,0.0015605292282998562,-0.022386319935321808,-1.327096700668335,-0.9915211200714111,-0.17080344259738922,-0.05503307655453682,-0.4798072278499603,0.0,0.0,0.0,0.0,-0.35832198915179575,-0.48125393722056997,0.5,-0.36553141474723816,-0.4915638864040375,0.005093682557344437,0.03428451716899872,-0.027983006089925766,-0.0002652672992553562,0.24090486764907837,0.09965350478887558,1.197875738143921,0.09964153915643692,0.08029377460479736,-0.05667193606495857,0.0,0.0,0.0,0.0,0.5961310143685576,-0.06802803619034163,0.5
1.102,TAKEOFF,incipient,1.0,0.6204344034194946,0.01592918112874031,0.0001757288264343515,0.0300761666148901,0.020639456808567047,0.0016400475287809968,0.1900673508644104,0.1516127735376358,1.8111881017684937,-0.04298270121216774,0.1494053155183792,-0.38044747710227966,0.0,0.0,0.0,0.0,-0.24068400151287667,0.5496100539616697,0.5,-0.380207359790802,0.606325089931488,0.002598259598016739,-0.00017281803593505174,-1.2090986274415627e-05,-0.0022327732294797897,-0.022386319935321808,-1.327096700668335,-0.9915211200714111,-0.17080344259738922,-0.05503307655453682,-0.4798072278499603,0.0,0.0,0.0,0.0,-0.35428625996323804,-0.4842326362413637,0.5,-0.36553141474723816,-0.4915638864040375,0.005093682557344437,0.010204177349805832,0.0002718933392316103,-0.006250530946999788,0.09075649082660675,0.21169304847717285,1.227757215499878,-0.06069814786314964,0.111762635409832,0.16696558892726898,0.0,0.0,0.0,0.0,0.596678886887111,-0.06304209659551417,0.5
1.122,TAKEOFF,incipient,1.0,0.6204344034194946,0.01592918112874031,0.0001757288264343515,0.030429132282733917,0.021032005548477173,0.0015701595693826675,0.19082146883010864,0.1508137732744217,1.8072556257247925,0.020490504801273346,0.1138945147395134,-0.19193889200687408,0.0,0.0,0.0,0.0,-0.24527024545880127,0.5475787675691776,0.5,-0.38029834628105164,0.6062109470367432,0.002559697488322854,9.496451821178198e-05,0.00016705240705050528,-0.0010340140433982015,-0.00938161090016365,-1.3279883861541748,-1.0102251768112183,-0.12619182467460632,-0.12938064336776733,-0.11236463487148285,0.0,0.0,0.0,0.0,-0.3502257703398412,-0.4871774931068396,0.5,-0.36553141474723816,-0.4915638864040375,0.005093682557344437,0.0050389738753438,-0.005850373767316341,-0.0017591151408851147,0.090260811150074,0.2106419950723648,1.2270290851593018,0.003292213659733534,-0.19660143554210663,0.05798766016960144,0.0,0.0,0.0,0.0,0.5971850585824369,-0.058051751100991256,0.5
1.142,TAKEOFF,incipient,1.0,0.6204344034194946,0.01592918112874031,0.0001757288264343515,0.03092988394200802,0.02177761122584343,0.00152087421156466,0.19018769264221191,0.15099899470806122,1.8042882680892944,-0.15083958208560944,0.12449488788843155,-0.30287474393844604,0.0,0.0,0.0,0.0,-0.24983934790471032,0.5455092118732269,0.5,-0.38029834628105164,0.6062109470367432,0.002559697488322854,0.0001588050799909979,0.0003843425656668842,-0.0010671912459656596,-0.009956437163054943,-1.3290663957595825,-0.9991747736930847,0.16158559918403625,0.04876646026968956,-0.2061784714460373,0.0,0.0,0.0,0.0,-0.34614080406198316,-0.4900883020062035,0.5,-0.36553141474723816,-0.4915638864040375,0.005093682557344437,0.004050130024552345,-0.00421100202947855,-0.0006519044400192797,0.07599445432424545,0.3089527189731598,1.1510738134384155,-0.007251831702888012,0.26969224214553833,0.08715581893920898,0.0,0.0,0.0,0.0,0.5976494940790982,-0.05305734847311921,0.5
1.162,TAKEOFF,incipient,1.0,0.6204344034194946,0.01592918112874031,0.0001757288264343515,0.03165021911263466,0.02255207486450672,0.0014904021518304944,0.189616397023201,0.15137720108032227,1.8006716966629028,-0.07298396527767181,0.007278125267475843,-0.24943260848522186,0.0,0.0,0.0,0.0,-0.2543909895241829,0.5434015315113742,0.5,-0.38029834628105164,0.6062109470367432,0.002559697488322854,0.00019500778580550104,0.0007292143418453634,-0.0012360882246866822,-0.010050651617348194,-1.3323783874511719,-0.9956490993499756,0.031042689457535744,-0.049627065658569336,0.14921076595783234,0.0,0.0,0.0,0.0,-0.3420316466206714,-0.49296485950821295,0.5,-0.36629214882850647,-0.4906921982765198,0.0049406434409320354,0.0056036184541881084,-0.003947789780795574,-0.0018756977515295148,0.09730411320924759,0.28322121500968933,1.1477712392807007,0.056473877280950546,0.24213194847106934,-0.033670488744974136,0.0,0.0,0.0,0.0,0.5980721609185263,-0.04805923776179018,0.5
1.182,TAKEOFF,incipient,1.0,0.6235213279724121,0.01806780882179737,0.00033336947672069073,0.03199907764792442,0.023058556020259857,0.001376394066028297,0.18762221932411194,0.15008771419525146,1.7980682849884033,0.18091554939746857,0.15489661693572998,-0.4040188491344452,0.0,0.0,0.0,0.0,-0.258924852211104,0.5412558737856411,0.5,-0.38029834628105164,0.6062109470367432,0.002559697488322854,0.000951675116084516,0.0010459560435265303,-0.0014643294271081686,-0.010050651617348194,-1.3323783874511719,-0.9956490993499756,0.031042689457535744,-0.049627065658569336,0.14921076595783234,0.0,0.0,0.0,0.0,-0.337898585197591,-0.4958069645753943,0.5,-0.36629214882850647,-0.4906921982765198,0.0049406434409320354,0.010869590565562248,-0.00760193495079875,0.00021908138296566904,0.12033239752054214,0.24572649598121643,1.202292799949646,-0.007397772744297981,-0.0654427707195282,-0.02594045177102089,0.0,0.0,0.0,0.0,0.5984530295612899,-0.04305776827604764,0.5
1.202,TAKEOFF,incipient,1.0,0.6235213279724121,0.01806780882179737,0.00033336947672069073,0.032771337777376175,0.02360704354941845,0.0013536332407966256,0.18762221932411194,0.15008771419525146,1.7980682849884033,0.18091554939746857,0.15489661693572998,-0.4040188491344452,0.0,0.0,0.0,0.0,-0.26344061910189676,0.5390723886522193,0.5,-0.38029834628105164,0.6062109470367432,0.002559697488322854,0.0007027743267826736,0.0009073084802366793,-0.0015719023067504168,-0.009214721620082855,-1.333264708518982,-0.9904724359512329,-0.08458706736564636,0.08868227154016495,-0.11769073456525803,0.0,0.0,0.0,0.0,-0.3337419086450333,-0.4986144185780935,0.5,-0.36629214882850647,-0.4906921982765198,0.0049406434409320354,0.002074369927868247,0.0016400768654420972,-0.0030018130782991648,0.07382215559482574,0.2826554477214813,1.233350157737732,-0.22115519642829895,0.095726378262043,0.02265937812626362,0.0,0.0,0.0,0.0,0.5987920733891586,-0.038053289559673846,0.5
1.222,TAKEOFF,incipient,1.0,0.6235213279724121,0.01806780882179737,0.00033336947672069073,-0.01554015837609768,0.008723121136426926,-0.0011823114473372698,0.18899857997894287,0.14843779802322388,1.7953035831451416,-0.06930399686098099,0.1603730469942093,0.10856016725301743,0.0,0.0,0.0,0.0,-0.2679379745976669,0.5368512287109903,0.5,-0.38007429242134094,0.6062818765640259,0.0024342783726751804,0.000602965650614351,0.0007420660695061088,-0.001550215994939208,-0.00851835310459137,-1.3359671831130981,-0.9591876268386841,-0.12619104981422424,0.07177761942148209,0.00933290459215641,0.0,0.0,0.0,0.0,-0.3295619074657093,-0.5013870253083572,0.5,-0.36629214882850647,-0.4906921982765198,0.0049406434409320354,-0.0018820827826857567,0.005429193377494812,-0.004009300842881203,0.03994225338101387,0.3132055401802063,1.2096670866012573,0.15477034449577332,0.04181290790438652,0.011383038014173508,0.0,0.0,0.0,0.0,0.5990892687069641,-0.03304615136676078,0.5
1.242,TAKEOFF,incipient,1.0,0.6235213279724121,0.01806780882179737,0.00033336947672069073,-0.017002679407596588,0.008684910833835602,-0.0011496851220726967,0.2814646065235138,0.5007315278053284,1.8636146783828735,0.1818879097700119,-0.009892115369439125,-0.17366716265678406,0.0,0.0,0.0,0.0,-0.27241660438625986,0.5345925491948611,0.5,-0.38007429242134094,0.6062818765640259,0.0024342783726751804,0.0008969052578322589,0.0013776755658909678,0.0007647910970263183,-0.014588574878871441,-1.3363245725631714,-0.9585515856742859,0.11208689212799072,-0.12328045815229416,0.03773100674152374,0.0,0.0,0.0,0.0,-0.3253588737924463,-0.5041245909936461,0.5,-0.36629214882850647,-0.4906921982765198,0.0049406434409320354,-0.00205812300555408,0.005317864939570427,-0.004148819018155336,0.03994225338101387,0.3132055401802063,1.2096670866012573,0.15477034449577332,0.04181290790438652,0.011383038014173508,0.0,0.0,0.0,0.0,0.5993445947442556,-0.02803670363726651,0.5
1.262,TAKEOFF,incipient,1.0,0.6235213279724121,0.01806780882179737,0.00033336947672069073,-0.017095666378736496,0.008648412302136421,-0.0007943125674501061,0.28226223587989807,0.49566903710365295,1.8844736814498901,-0.11799204349517822,-0.15814200043678284,-0.2524190843105316,0.0,0.0,0.0,0.0,-0.27687619546422737,0.5322965079589147,0.5,-0.38007429242134094,0.6062818765640259,0.0024342783726751804,0.001242903177626431,0.002348816953599453,0.003094031009823084,-0.01870487630367279,-1.3367139101028442,-0.9314354062080383,-0.13193228840827942,0.18570701777935028,-0.04889695346355438,0.0,0.0,0.0,0.0,-0.32113310136777157,-0.5068269243103769,0.5,-0.36909133195877075,-0.487842321395874,0.0042899842374026775,-0.0021632558200508356,0.005206957925111055,-0.0037038822192698717,0.04006388410925865,0.31283843517303467,1.2094595432281494,0.11784358322620392,-0.08515867590904236,0.009589899331331253,0.0,0.0,0.0,0.0,0.5995580336567518,-0.023025296472558507,0.5
1.282,TAKEOFF,incipient,1.0,0.6148050427436829,0.014707205817103386,0.00014385372924152762,-0.0172368586063385,0.009145551361143589,-0.0005937616224400699,0.2802380323410034,0.4967872202396393,1.8823741674423218,-0.2476477026939392,-0.1167287826538086,-0.002822056645527482,0.0,0.0,0.0,0.0,-0.2813164361587027,0.5299632654693781,0.5,-0.38007429242134094,0.6062818765640259,0.0024342783726751804,0.0006419118726626039,0.0008022773545235395,0.002065303036943078,-0.006433944683521986,-1.3326078653335571,-0.934026837348938,0.10266023874282837,0.03134622797369957,0.01211403775960207,0.0,0.0,0.0,0.0,-0.3168848855233834,-0.5094938363972936,0.5,-0.36909133195877075,-0.487842321395874,0.0042899842374026775,0.025159571319818497,-0.016036182641983032,0.0015103725017979741,0.04017838463187218,0.3132055103778839,1.209999442100525,-0.03451675921678543,-0.10969527810811996,-0.11759312450885773,0.0,0.0,0.0,0.0,0.5997295705275877,-0.01801228011094566,0.5
1.302,TAKEOFF,incipient,1.0,0.6148050427436829,0.014707205817103386,0.00014385372924152762,-0.017329398542642593,0.010020364075899124,-0.0001211808921652846,0.2729085683822632,0.48965686559677124,1.913010597229004,0.04681374877691269,0.016407206654548645,-0.14431649446487427,0.0,0.0,0.0,0.0,-0.28573701614918295,0.5275929847924076,0.5,-0.38007429242134094,0.6062818765640259,0.0024342783726751804,0.0002769974817056209,0.0001193604402942583,0.0008393963216803968,-0.0007666595629416406,-1.3334165811538696,-0.9396189451217651,-0.10854627192020416,-0.1876281499862671,0.03655129298567772,0.0,0.0,0.0,0.0,-0.3126145231595102,-0.512125140868667,0.5,-0.36909133195877075,-0.487842321395874,0.0042899842374026775,0.007728718686848879,-0.00017295625002589077,-0.0037567848339676857,0.0814129039645195,0.2442159354686737,1.24478280544281,-0.1693974733352661,0.10218831896781921,-0.17532092332839966,0.0,0.0,0.0,0.0,0.5998591933683574,-0.012998004903200773,0.5
1.323,TAKEOFF,incipient,1.0,0.6148050427436829,0.014707205817103386,0.00014385372924152762,-0.004601679276674986,0.009862548671662807,0.001795730902813375,0.2749432325363159,0.3899374008178711,1.9586611986160278,0.15014761686325073,0.12490073591470718,0.09653916209936142,0.0,0.0,0.0,0.0,-0.29013762648921654,0.525185831582692,0.5,-0.38019511103630066,0.6062530875205994,0.002851545810699463,0.000715644855517894,0.0010580784874036908,0.003279318567365408,-0.0007666595629416406,-1.3334165811538696,-0.9396189451217651,-0.10854627192020416,-0.1876281499862671,0.03655129298567772,0.0,0.0,0.0,0.0,-0.3083223127241615,-0.5147206538273205,0.5,-0.36909133195877075,-0.487842321395874,0.0042899842374026775,0.0028599232900887728,-0.007382094860076904,-0.0002964366285596043,0.0814129039645195,0.2442159354686737,1.24478280544281,-0.1693974733352661,0.10218831896781921,-0.17532092332839966,0.0,0.0,0.0,0.0,0.5999468931199516,-0.007982821288075148,0.5
1.342,TAKEOFF,incipient,1.0,0.6148050427436829,0.014707205817103386,0.00014385372924152762,0.0009665865218266845,0.013254058547317982,0.0037795756943523884,0.25124412775039673,0.3409375548362732,1.997025966644287,0.3318612277507782,0.05438220128417015,-0.12419755756855011,0.0,0.0,0.0,0.0,-0.29451795962799543,0.5227419740718765,0.5,-0.38019511103630066,0.6062530875205994,0.002851545810699463,0.0007598667871206999,0.0013405068311840296,0.0032749308738857508,-0.007838831283152103,-1.3339592218399048,-0.9161714315414429,-0.2262944132089615,-0.01901315525174141,0.005641359370201826,0.0,0.0,0.0,0.0,-0.30400855419226963,-0.5172801938774825,0.5,-0.36909133195877075,-0.487842321395874,0.0042899842374026775,0.0031017058063298464,-0.0076374332420527935,-0.0004051448777318001,0.1322067528963089,0.2843990921974182,1.1914942264556885,0.16177046298980713,0.19283948838710785,0.11660615354776382,0.0,0.0,0.0,0.0,0.5999926636531911,-0.0029670797678070632,0.5
1.362,TAKEOFF,incipient,1.0,0.6148050427436829,0.014707205817103386,0.00014385372924152762,-0.002859551692381501,0.0024371978361159563,-0.002583650406450033,0.3385567367076874,0.3705790042877197,1.9337157011032104,-0.06653048098087311,-0.07768288254737854,-0.01189306378364563,0.0,0.0,0.0,0.0,-0.29887770943184877,0.5202615830568036,0.5,-0.38019511103630066,0.6062530875205994,0.002851545810699463,0.0007635216461494565,0.0013965606922283769,0.003067457815632224,-0.009463213384151459,-1.3347949981689453,-0.9167084693908691,0.14861710369586945,-0.08425322920084,0.00947397481650114,0.0,0.0,0.0,0.0,-0.2996735490447245,-0.5198035821374638,0.5,-0.3650696575641632,-0.49268287420272827,0.0056593953631818295,0.02133575826883316,-0.019214333966374397,0.0052711134776473045,0.13173708319664001,0.279852032661438,1.1913690567016602,-0.058659251779317856,0.11623448878526688,-0.07192456722259521,0.0,0.0,0.0,0.0,0.5999965017692553,0.002048869116374205,0.5
1.382,TAKEOFF,incipient,1.0,0.620292603969574,0.012290150858461857,-0.00010520285286474973,0.0003205396933481097,0.002531306352466345,-0.005175661761313677,0.33895909786224365,0.3444522023200989,1.9184675216674805,0.10479429364204407,0.06063084304332733,-0.04389834776520729,0.0,0.0,0.0,0.0,-0.30321657120563844,0.5177448318875776,0.5,-0.38019511103630066,0.6062530875205994,0.002851545810699463,-0.00023638962011318654,0.0002690633409656584,0.000298303144518286,-0.00038966748979873955,-1.327781081199646,-0.9289023876190186,-0.13111689686775208,0.17844323813915253,0.21589966118335724,0.0,0.0,0.0,0.0,-0.2953176002473045,-0.5222906422521595,0.5,-0.3650696575641632,-0.49268287420272827,0.0056593953631818295,0.027631273493170738,-0.023060495033860207,0.00582065898925066,0.2209111601114273,0.14833612740039825,1.2466130256652832,-0.0046869064681231976,0.028234660625457764,0.06373858451843262,0.0,0.0,0.0,0.0,0.5999584071999047,0.007064674808747089,0.5
1.402,TAKEOFF,incipient,1.0,0.620292603969574,0.012290150858461857,-0.00010520285286474973,0.0005044024437665939,0.0028303819708526134,-0.0054598660208284855,0.3409823775291443,0.34382349252700806,1.9151815176010132,0.03697096183896065,0.11765334755182266,0.04517854377627373,0.0,0.0,0.0,0.0,-0.30753424171405347,0.515191896455449,0.5,-0.38019511103630066,0.6062530875205994,0.002851545810699463,-0.0006200970965437591,-6.587730604223907e-05,-0.000889952527359128,0.0006032255478203297,-1.3288079500198364,-0.9392136335372925,-0.19734419882297516,0.06956598907709122,-0.2385684847831726,0.0,0.0,0.0,0.0,-0.2909410122295024,-0.5247412004053736,0.5,-0.3650696575641632,-0.49268287420272827,0.0056593953631818295,0.02847396582365036,-0.023628998547792435,0.00609751557931304,0.24827511608600616,0.10570205748081207,1.2948473691940308,0.12984681129455566,-0.18781015276908875,0.07345817238092422,0.0,0.0,0.0,0.0,0.5998783826075009,0.012079986763597441,0.5
1.422,TAKEOFF,incipient,1.0,0.620292603969574,0.012290150858461857,-0.00010520285286474973,-0.010927797295153141,0.022924931719899178,-0.0025245018769055605,0.18058457970619202,0.4257188141345978,1.9681237936019897,0.013041401281952858,0.3171495497226715,0.07496874779462814,0.0,0.0,0.0,0.0,-0.3118304192028026,0.5126029551805221,0.5,-0.38034573197364807,0.6062082052230835,0.002564375288784504,-0.0007586262654513121,-0.0008415685151703656,-0.0037194613832980394,0.008546032011508942,-1.3298852443695068,-0.959844172000885,-0.09737381339073181,-0.16317668557167053,0.20815333724021912,0.0,0.0,0.0,0.0,-0.28654409086324895,-0.5271550853319676,0.5,-0.3650696575641632,-0.49268287420272827,0.0056593953631818295,0.026253949850797653,-0.020612746477127075,0.01795775815844536,0.24821880459785461,0.10591423511505127,1.2953637838363647,0.09087524563074112,-0.020435892045497894,0.02937517873942852,0.0,0.0,0.0,0.0,0.5997564335848201,0.017094454469717548,0.5
1.442,TAKEOFF,incipient,1.0,0.620292603969574,0.012290150858461857,-0.00010520285286474973,0.00459293182939291,0.017107971012592316,0.0006975854048505425,0.23484021425247192,0.2990865707397461,1.9608285427093506,-0.19708092510700226,0.12200959771871567,0.17701168358325958,0.0,0.0,0.0,0.0,-0.3161048034197032,0.5099781889992853,0.5,-0.38034573197364807,0.6062082052230835,0.002564375288784504,-0.0006502351025119424,-0.0009078707662411034,-0.0035629444755613804,0.009432646445930004,-1.3264254331588745,-0.9601678848266602,0.003645188407972455,0.2924805283546448,-0.16215859353542328,0.0,0.0,0.0,0.0,-0.28212714344153655,-0.5295321283298291,0.5,-0.3650696575641632,-0.49268287420272827,0.0056593953631818295,0.02683907561004162,-0.021109355613589287,0.018051380291581154,0.21931789815425873,0.12771108746528625,1.290940284729004,-0.04418186470866203,0.0012564265634864569,0.011864873580634594,0.0,0.0,0.0,0.0,0.5995925686546618,0.022107727474902732,0.5
1.462,TAKEOFF,incipient,1.0,0.620292603969574,0.012290150858461857,-0.00010520285286474973,0.004391937516629696,0.01755942963063717,0.0009449583012610674,0.23267659544944763,0.2992557883262634,1.9568804502487183,0.10498311370611191,0.12353697419166565,-0.1625809669494629,0.0,0.0,0.0,0.0,-0.32035709563566583,0.5073177813519656,0.5,-0.38034573197364807,0.6062082052230835,0.002564375288784504,-0.000521077134180814,-0.0007786411442793906,-0.0036277573090046644,0.010135732591152191,-1.3276070356369019,-0.9607774615287781,-0.13129805028438568,0.335467666387558,0.07020136713981628,0.0,0.0,0.0,0.0,-0.2776904786569429,-0.5318721632716624,0.5,-0.36229223012924194,-0.49442967772483826,0.007742706686258316,0.02523163892328739,-0.018450064584612846,0.012521633878350258,0.22131729125976562,0.12706978619098663,1.29080069065094,-0.2901786267757416,0.17149469256401062,0.13390958309173584,0.0,0.0,0.0,0.0,0.599386799269254,0.027119455410443836,0.5
1.482,TAKEOFF,incipient,1.0,0.6218206882476807,0.015919866040349007,0.0002741738280747086,0.004201967269182205,0.01780887320637703,0.0009063450270332396,0.2318672239780426,0.29836058616638184,1.954228162765503,0.13066577911376953,0.0425725132226944,-0.14326530694961548,0.0,0.0,0.0,0.0,-0.32458699866557156,0.5046219181697087,0.5,-0.38034573197364807,0.6062082052230835,0.002564375288784504,0.000522050482686609,0.0009417925029993057,0.0009455783874727786,-0.004788517951965332,-1.3353277444839478,-0.9375355243682861,0.09259037673473358,-0.32171058654785156,-0.23637375235557556,0.0,0.0,0.0,0.0,-0.27323440658005704,-0.5341750266165989,0.5,-0.36229223012924194,-0.49442967772483826,0.007742706686258316,-0.0010415322612971067,0.004808850586414337,0.0016737401019781828,0.01640583761036396,0.34096309542655945,1.309550404548645,-0.06957542896270752,0.007865265011787415,-0.03756001591682434,0.0,0.0,0.0,0.0,0.5991391398094517,0.032129288015613856,0.5
1.502,TAKEOFF,incipient,1.0,0.6218206882476807,0.015919866040349007,0.0002741738280747086,0.00398569880053401,0.01833384484052658,0.0006069819792173803,0.23069675266742706,0.29772987961769104,1.9512131214141846,-0.06266143172979355,0.32772278785705566,0.024862030521035194,0.0,0.0,0.0,0.0,-0.32879421688904165,0.5018907878615843,0.5,-0.38034573197364807,0.6062082052230835,0.002564375288784504,0.00041844689985737205,0.002602245658636093,0.0036466321907937527,-0.004788517951965332,-1.3353277444839478,-0.9375355243682861,0.09259037673473358,-0.32171058654785156,-0.23637375235557556,0.0,0.0,0.0,0.0,-0.26875923863780893,-0.5364405574216263,0.5,-0.36229223012924194,-0.49442967772483826,0.007742706686258316,0.0102017717435956,-0.0013112048618495464,0.0005607794737443328,0.06729410588741302,0.252718448638916,1.3709466457366943,0.13972818851470947,-0.18739083409309387,0.09488383680582047,0.0,0.0,0.0,0.0,0.5988496075837331,0.03713687516214707,0.5
1.522,TAKEOFF,incipient,1.0,0.6218206882476807,0.015919866040349007,0.0002741738280747086,0.003926287405192852,0.018809359520673752,0.0003830769273918122,0.23069675266742706,0.29772987961769104,1.9512131214141846,-0.06266143172979355,0.32772278785705566,0.024862030521035194,0.0,0.0,0.0,0.0,-0.3329784562710979,0.49912458130141873,0.5,-0.3773834705352783,0.6039363741874695,0.003469752846285701,0.00921789463609457,-0.014196579344570637,0.00242427596822381,0.11632039397954941,-1.4001078605651855,-0.9536641240119934,-0.04579124227166176,0.10351595282554626,-0.03191490098834038,0.0,0.0,0.0,0.0,-0.2642652875917046,-0.5386685973528377,0.5,-0.36229223012924194,-0.49442967772483826,0.007742706686258316,0.010504411533474922,-0.0010148737346753478,0.0005430878372862935,0.06729410588741302,0.252718448638916,1.3709466457366943,0.13972818851470947,-0.18739083409309387,0.09488383680582047,0.0,0.0,0.0,0.0,0.598518222826989,0.042141866878708835,0.5
1.542,TAKEOFF,incipient,1.0,0.6218206882476807,0.015919866040349007,0.0002741738280747086,0.006436208728700876,0.02466334030032158,0.00363037153147161,0.1523485779762268,0.31520572304725647,2.0522425174713135,-0.2009991705417633,-0.14049039781093597,-0.14953774213790894,0.0,0.0,0.0,0.0,-0.3371394243827126,0.4963234918144548,0.5,-0.3773834705352783,0.6039363741874695,0.003469752846285701,0.009763176552951336,-0.014937900006771088,0.0027152413967996836,0.06982260197401047,-1.3002068996429443,-0.920357346534729,-0.17778272926807404,-0.36775022745132446,-0.13982440531253815,0.0,0.0,0.0,0.0,-0.2597528675159678,-0.5408589906964957,0.5,-0.36229223012924194,-0.49442967772483826,0.007742706686258316,0.010509281419217587,-0.001024539116770029,0.0007481801440007985,-0.09333895891904831,0.42852330207824707,1.334522008895874,0.09748680889606476,0.13304898142814636,-0.047121744602918625,0.0,0.0,0.0,0.0,0.5981450086991089,0.04714391337535448,0.5
1.562,TAKEOFF,incipient,1.0,0.6218206882476807,0.015919866040349007,0.0002741738280747086,0.00702414195984602,0.024619756266474724,0.005103942938148975,0.19693423807621002,0.2681562602519989,2.040273666381836,-0.17700691521167755,-0.03472338989377022,0.01836276426911354,0.0,0.0,0.0,0.0,-0.3412768304212455,0.49348771516384116,0.5,-0.3773834705352783,0.6039363741874695,0.003469752846285701,-0.0031561776995658875,-0.009206002578139305,0.006748379208147526,0.04194643348455429,-1.2527410984039307,-0.8949365019798279,0.08842717856168747,-0.11906175315380096,0.14257588982582092,0.0,0.0,0.0,0.0,-0.25522229377558964,-0.5430115843699161,0.5,-0.3687770366668701,-0.4897310435771942,0.005156568251550198,-0.015485509298741817,0.014677990227937698,-0.00478840759024024,-0.09333895891904831,0.42852330207824707,1.334522008895874,0.09748680889606476,0.13304898142814636,-0.047121744602918625,0.0,0.0,0.0,0.0,0.5977299912833628,0.05214266506797551,0.5
1.582,TAKEOFF,incipient,1.0,0.6231024265289307,0.01888284832239151,0.001127477502450347,0.006797823589295149,0.025189144536852837,0.004920915700495243,0.19298747181892395,0.26897913217544556,2.0375521183013916,-0.149368554353714,0.006958772893995047,0.03483925387263298,0.0,0.0,0.0,0.0,-0.3453903852307676,0.4906174495369503,0.5,-0.3773834705352783,0.6039363741874695,0.003469752846285701,-0.009377802722156048,-0.00603699404746294,0.009664466604590416,0.04152945056557655,-1.2510392665863037,-0.8947833776473999,-0.1521374136209488,0.05738156661391258,-0.13488447666168213,0.0,0.0,0.0,0.0,-0.25067388300428856,-0.5451262279321664,0.5,-0.3687770366668701,-0.4897310435771942,0.005156568251550198,-0.015772558748722076,0.015319678001105785,-0.004875076003372669,-0.05752940475940704,0.44987720251083374,1.2703038454055786,-0.2971228063106537,-0.23171305656433105,-0.05071539431810379,0.0,0.0,0.0,0.0,0.5972731995845775,0.057137772602731396,0.5
1.602,TAKEOFF,incipient,1.0,0.6231024265289307,0.01888284832239151,0.001127477502450347,-0.01152767613530159,-0.007162034977227449,-0.0035802198108285666,0.43786317110061646,0.4106225073337555,1.9717888832092285,0.10374585539102554,-0.12312968820333481,-0.10044082999229431,0.0,0.0,0.0,0.0,-0.3494798013222698,0.48771289553152763,0.5,-0.3773834705352783,0.6039363741874695,0.003469752846285701,-0.012227305211126804,-0.004552422557026148,0.01117076724767685,0.017397861927747726,-1.2191392183303833,-0.854056179523468,0.03323027864098549,-0.16018733382225037,0.037794094532728195,0.0,0.0,0.0,0.0,-0.24610795308238126,-0.5472027735945793,0.5,-0.3687770366668701,-0.4897310435771942,0.005156568251550198,-0.016009777784347534,0.01592891290783882,-0.005206282716244459,-0.08466803282499313,0.47216641902923584,1.2347685098648071,-0.3101329803466797,0.036561425775289536,-0.22101278603076935,0.0,0.0,0.0,0.0,0.5967746655271102,0.06212888688046533,0.5
1.622,TAKEOFF,incipient,1.0,0.6231024265289307,0.01888284832239151,0.001127477502450347,-0.014212485402822495,0.0008189970394596457,-0.002239762805402279,0.36928263306617737,0.4327881634235382,2.0230627059936523,-0.1126643642783165,-0.007405328098684549,-0.17088551819324493,0.0,0.0,0.0,0.0,-0.353544792893755,0.48477425614167247,0.5,-0.38060736656188965,0.604349672794342,0.005297299008816481,-0.014036242850124836,-0.0039430600591003895,0.012100966647267342,0.011313533410429955,-1.214860439300537,-0.8272103667259216,-0.062451042234897614,0.036811187863349915,-0.20668673515319824,0.0,0.0,0.0,0.0,-0.2415248231145667,-0.549241076231082,0.5,-0.3687770366668701,-0.4897310435771942,0.005156568251550198,-0.01904243230819702,0.017831312492489815,-0.009369618259370327,-0.08466803282499313,0.47216641902923584,1.2347685098648071,-0.3101329803466797,0.036561425775289536,-0.22101278603076935,0.0,0.0,0.0,0.0,0.5962344239526172,0.06711565908110209,0.5
1.642,TAKEOFF,incipient,1.0,0.6231024265289307,0.01888284832239151,0.001127477502450347,-0.014777214266359806,0.0008509017643518746,-0.0021265780087560415,0.3668140769004822,0.43330898880958557,2.0207154750823975,-0.1573391556739807,0.05374777317047119,-0.07536762952804565,0.0,0.0,0.0,0.0,-0.3575850758502121,0.4818017367436506,0.5,-0.38060736656188965,0.604349672794342,0.005297299008816481,-0.01507401280105114,-0.003243283601477742,0.012652247212827206,0.009910599328577518,-1.214218258857727,-0.8286725282669067,-0.008280021138489246,0.2962018549442291,0.01597568951547146,0.0,0.0,0.0,0.0,-0.23692481340762425,-0.5512409933883387,0.5,-0.3687770366668701,-0.4897310435771942,0.005156568251550198,-0.019334860146045685,0.01845409907400608,-0.009550170972943306,-0.06728770583868027,0.47441786527633667,1.1773924827575684,-0.13112321496009827,0.03749862313270569,0.03685268759727478,0.0,0.0,0.0,0.0,0.5956525126176184,0.07209774068802646,0.5
1.662,TAKEOFF,incipient,1.0,0.6231024265289307,0.01888284832239151,0.001127477502450347,-0.01523664128035307,0.0007993954932317138,-0.002067786641418934,0.36569541692733765,0.43165281414985657,2.018418550491333,0.2251129150390625,-0.04849426448345184,-0.061377622187137604,0.0,0.0,0.0,0.0,-0.3616003678234712,0.4787955450815413,0.5,-0.38060736656188965,0.604349672794342,0.005297299008816481,-0.015430321916937828,-0.003467924427241087,0.012698502279818058,0.009378244169056416,-1.217557668685913,-0.8294636607170105,-0.19858576357364655,-0.03189067542552948,-0.044935278594493866,0.0,0.0,0.0,0.0,-0.23230824544802828,-0.5532023852957059,0.5,-0.3706856667995453,-0.4879562556743622,0.004448486492037773,-0.01858699880540371,0.019945010542869568,-0.006135854870080948,-0.07640162855386734,0.4616021513938904,1.1530476808547974,0.08256653696298599,0.04372067376971245,0.03810447081923485,0.0,0.0,0.0,0.0,0.5950289721908593,0.07707478351244053,0.5
1.682,TAKEOFF,incipient,1.0,0.6180696487426758,0.015419433824717999,-0.00030294430325739086,-0.01523664128035307,0.0007993954932317138,-0.002067786641418934,0.36569541692733765,0.43165281414985657,2.018418550491333,0.2251129150390625,-0.04849426448345184,-0.061377622187137604,0.0,0.0,0.0,0.0,-0.3655903881919375,0.4757558912527184,0.5,-0.38060736656188965,0.604349672794342,0.005297299008816481,-0.015986021608114243,-0.0035967398434877396,0.012926282361149788,0.009378244169056416,-1.217557668685913,-0.8294636607170105,-0.19858576357364655,-0.03189067542552948,-0.044935278594493866,0.0,0.0,0.0,0.0,-0.22767544187947977,-0.5551251148750015,0.5,-0.3706856667995453,-0.4879562556743622,0.004448486492037773,-0.01858699880540371,0.019945010542869568,-0.006135854870080948,-0.07248294353485107,0.4508837163448334,1.1282597780227661,0.09505688399076462,-0.47354522347450256,-0.053221605718135834,0.0,0.0,0.0,0.0,0.5943638462504682,0.08204643971769777,0.5
1.702,TAKEOFF,incipient,1.0,0.6180696487426758,0.015419433824717999,-0.00030294430325739086,0.003461492247879505,0.0052834064699709415,0.002472367137670517,0.337779700756073,0.2666526436805725,2.0510451793670654,0.2296140044927597,0.1778678447008133,-0.15005230903625488,0.0,0.0,0.0,0.0,-0.36955485810020366,0.47268298769316663,0.5,-0.38060736656188965,0.604349672794342,0.005297299008816481,-0.01658768206834793,-0.003515653545036912,0.013152970001101494,0.007813556119799614,-1.2186315059661865,-0.8305363655090332,-0.24648816883563995,0.2151288390159607,-0.0949351042509079,0.0,0.0,0.0,0.0,-0.22302672648035757,-0.5570090477500843,0.5,-0.3706856667995453,-0.4879562556743622,0.004448486492037773,-0.0034056068398058414,0.013137321919202805,-0.005419074557721615,-0.06398984044790268,0.44217589497566223,1.1018379926681519,0.16866613924503326,0.07486781477928162,-0.15627749264240265,0.0,0.0,0.0,0.0,0.5936571812809107,0.08701236184361304,0.5
1.722,TAKEOFF,incipient,1.0,0.6180696487426758,0.015419433824717999,-0.00030294430325739086,0.0034029679372906685,0.0053682816214859486,0.002517228713259101,0.3373776376247406,0.2657046318054199,2.047553539276123,0.008631198666989803,0.26085081696510315,-0.07164624333381653,0.0,0.0,0.0,0.0,-0.37349350047853846,0.4695770491626352,0.5,-0.3822197914123535,0.6040692329406738,0.006679012440145016,-0.01709781214594841,-0.0034438425209373236,0.013110353611409664,0.005074197426438332,-1.2200520038604736,-0.8322983384132385,-0.02301965467631817,-0.31610336899757385,-0.03068418800830841,0.0,0.0,0.0,0.0,-0.2183624241410899,-0.5588540522562458,0.5,-0.3706856667995453,-0.4879562556743622,0.004448486492037773,-0.0036341731902211905,0.013438533060252666,-0.005345309618860483,-0.05305741727352142,0.3916119337081909,1.1387913227081299,-0.12898415327072144,-0.041481222957372665,0.03759726509451866,0.0,0.0,0.0,0.0,0.5929090266697414,0.0919722028307456,0.5
1.742,TAKEOFF,incipient,1.0,0.6180696487426758,0.015419433824717999,-0.00030294430325739086,-0.00744540523737669,-0.017615906894207,-0.002883532550185919,0.5257883667945862,0.35419830679893494,1.978427529335022,-0.014904181472957134,0.2656494975090027,-0.10913963615894318,0.0,0.0,0.0,0.0,-0.3774060400622506,0.4664382927296288,0.5,-0.3822197914123535,0.6040692329406738,0.006679012440145016,-0.017598832026124,-0.0033711541909724474,0.013075491413474083,0.005013711750507355,-1.2198965549468994,-0.832690954208374,-0.26077303290367126,-0.08702974766492844,0.010820425115525723,0.0,0.0,0.0,0.0,-0.21368286084144847,-0.5606599994494116,0.5,-0.3706856667995453,-0.4879562556743622,0.004448486492037773,-0.010417850688099861,0.019943764433264732,-0.006676319055259228,-0.062362633645534515,0.4042794704437256,1.1206179857254028,0.0062460689805448055,0.11668466031551361,0.1640344113111496,0.0,0.0,0.0,0.0,0.5921194347041516,0.0969256160446548,0.5
1.762,TAKEOFF,incipient,1.0,0.6180696487426758,0.015419433824717999,-0.00030294430325739086,-0.011546144261956215,-0.020692873746156693,0.0007133395993150771,0.5403606295585632,0.38703423738479614,1.9232014417648315,0.07180149108171463,0.039604056626558304,-0.12428684532642365,0.0,0.0,0.0,0.0,-0.3812922034109266,0.4632669377562363,0.5,-0.3822197914123535,0.6040692329406738,0.006679012440145016,-0.018091747537255287,-0.0033531361259520054,0.012973862700164318,0.00495228311046958,-1.2201344966888428,-0.8317668437957764,-0.05775710567831993,0.13252495229244232,-0.08515223860740662,0.0,0.0,0.0,0.0,-0.20898836362776632,-0.562426763115153,0.5,-0.3693477213382721,-0.48712098598480225,0.0035691922530531883,-0.012412515468895435,0.021658480167388916,-0.006989123299717903,-0.005878283176571131,0.4348032474517822,1.0703264474868774,-0.18499137461185455,0.2707633078098297,0.1187593936920166,0.0,0.0,0.0,0.0,0.5912884605673157,0.10187225530012552,0.5
1.782,TAKEOFF,incipient,1.0,0.6172482371330261,0.011183389462530613,-4.241796341375448e-05,-0.011565078049898148,-0.021311737596988678,0.0009731822647154331,0.5414875745773315,0.3867993950843811,1.9204533100128174,-0.16622386872768402,-0.05214196816086769,-0.09610167145729065,0.0,0.0,0.0,0.0,-0.385151718927541,0.4600632058828008,0.5,-0.3822197914123535,0.6040692329406738,0.006679012440145016,-0.01873224787414074,-0.00307677173987031,0.012623850256204605,-0.039860423654317856,-1.3007569313049316,-0.8703387379646301,0.011147442273795605,-0.13314084708690643,-0.0841364935040474,0.0,0.0,0.0,0.0,-0.20427926059008106,-0.5641542197775088,0.5,-0.3693477213382721,-0.48712098598480225,0.0035691922530531883,-0.01628851890563965,0.015158004127442837,-0.00584421306848526,-0.005878283176571131,0.4348032474517822,1.0703264474868774,-0.18499137461185455,0.2707633078098297,0.1187593936920166,0.0,0.0,0.0,0.0,0.5904161623345339,0.10681177488536255,0.5
1.802,TAKEOFF,incipient,1.0,0.6172482371330261,0.011183389462530613,-4.241796341375448e-05,0.00040324279689230025,-0.022880658507347107,-0.006401550490409136,0.554824948310852,0.28192731738090515,1.9097837209701538,-0.10326873511075974,0.07351408153772354,-0.02858108840882778,0.0,0.0,0.0,0.0,-0.3889843168774379,0.4568273210124291,0.5,-0.3822197914123535,0.6040692329406738,0.006679012440145016,-0.007175914011895657,0.0048269061371684074,-0.009942371398210526,-0.03447391837835312,-1.3057916164398193,-0.9147605895996094,-0.3354906737804413,0.03543567284941673,0.1846458464860916,0.0,0.0,0.0,0.0,-0.19955588083920528,-0.5658422487076137,0.5,-0.3693477213382721,-0.48712098598480225,0.0035691922530531883,-0.015447492711246014,0.01638776808977127,-0.00386055838316679,-0.013069858774542809,0.42527294158935547,1.0527106523513794,-0.13639351725578308,-0.05114689841866493,0.04378589987754822,0.0,0.0,0.0,0.0,0.589502600969174,0.11174382958615163,0.5
1.822,TAKEOFF,incipient,1.0,0.6172482371330261,0.011183389462530613,-4.241796341375448e-05,0.0005122022121213377,-0.023242134600877762,-0.006638453342020512,0.5532169342041016,0.28081414103507996,1.908007025718689,-0.018330516293644905,0.019923871383070946,-0.11896955221891403,0.0,0.0,0.0,0.0,-0.3927897294071819,0.45355950929534355,0.5,-0.3809538185596466,0.6065250039100647,0.0008597129490226507,-0.006650907918810844,0.004424827639013529,-0.013747221790254116,-0.0327136293053627,-1.308936357498169,-0.9539796113967896,-0.06924860924482346,0.24449792504310608,0.08404356241226196,0.0,0.0,0.0,0.0,-0.19481855448372565,-0.5674907319321362,0.5,-0.3693477213382721,-0.48712098598480225,0.0035691922530531883,-0.015806961804628372,0.01680605486035347,-0.003997137304395437,-0.013307107612490654,0.4254690110683441,1.0530158281326294,-0.043734170496463776,0.15564320981502533,0.004654965363442898,0.0,0.0,0.0,0.0,0.5885478403184103,0.11666807470998612,0.5
1.842,TAKEOFF,incipient,1.0,0.6172482371330261,0.011183389462530613,-4.241796341375448e-05,0.000511281774379313,-0.023705080151557922,-0.006850069854408503,0.5514686703681946,0.2775398790836334,1.9060237407684326,-0.05543293058872223,0.09092238545417786,0.022503366693854332,0.0,0.0,0.0,0.0,-0.39656769056327823,0.4502599991130769,0.5,-0.3809538185596466,0.6065250039100647,0.0008597129490226507,-0.006532788276672363,0.004252318758517504,-0.015347116626799107,-0.03333580866456032,-1.3123902082443237,-0.979339063167572,-0.15202602744102478,-0.027077024802565575,-0.007092774845659733,0.0,0.0,0.0,0.0,-0.19006761260693214,-0.5690995542415238,0.5,-0.3693477213382721,-0.48712098598480225,0.0035691922530531883,-0.015935679897665977,0.016896646469831467,-0.003980858717113733,-0.015154902823269367,0.4247890114784241,1.0562716722488403,0.12305974215269089,-0.09005974233150482,-0.09607431292533875,0.0,0.0,0.0,0.0,0.5875519471087624,0.12158416611015668,0.5
1.862,TAKEOFF,incipient,1.0,0.6172482371330261,0.011183389462530613,-4.241796341375448e-05,0.006361847743391991,-0.020835168659687042,-0.015331837348639965,0.2559071183204651,0.26539888978004456,1.9595319032669067,0.06359963864088058,-0.00022871246619615704,-0.005474078934639692,0.0,0.0,0.0,0.0,-0.4003179363107597,0.44692902106251114,0.5,-0.3809538185596466,0.6065250039100647,0.0008597129490226507,-0.0026418794877827168,0.003034120425581932,-0.008895110338926315,-0.026847733184695244,-1.3412020206451416,-0.9740418195724487,-0.040039610117673874,0.46768367290496826,0.1601249724626541,0.0,0.0,0.0,0.0,-0.18530338724367917,-0.5706686031980549,0.5,-0.37140312790870667,-0.4868510663509369,0.0038872803561389446,-0.016034044325351715,0.017111526802182198,-0.003965744748711586,-0.017906345427036285,0.42527368664741516,1.0560578107833862,0.044269051402807236,0.08485651016235352,0.13170494139194489,0.0,0.0,0.0,0.0,0.5865149909414299,0.1264917602098032,0.5
1.882,TAKEOFF,incipient,1.0,0.6215325593948364,0.013981418684124947,-0.00034029813832603395,0.006956329569220543,0.010760870762169361,-0.0009470244986005127,0.167634055018425,0.2391924411058426,2.001459836959839,0.07449287921190262,0.3045458495616913,-0.026602135971188545,0.0,0.0,0.0,0.0,-0.40404020455163964,0.44356680793976144,0.5,-0.3809538185596466,0.6065250039100647,0.0008597129490226507,-0.0018308537546545267,0.004012701101601124,-0.005670784506946802,-0.0353134348988533,-1.3484001159667969,-0.9605816602706909,-0.058173127472400665,0.07061757147312164,-0.062413208186626434,0.0,0.0,0.0,0.0,-0.18052621135718042,-0.5721977691436961,0.5,-0.37140312790870667,-0.4868510663509369,0.0038872803561389446,-0.016408246010541916,0.017622344195842743,-0.004162436816841364,0.0674271434545517,0.42048394680023193,1.0074245929718018,0.08183930069208145,0.12390853464603424,0.17788079380989075,0.0,0.0,0.0,0.0,0.5854370442874304,0.13139051402592677,0.5
1.902,TAKEOFF,incipient,1.0,0.6215325593948364,0.013981418684124947,-0.00034029813832603395,0.004320498090237379,0.022731970995664597,0.001515299896709621,0.27090832591056824,0.3493371903896332,1.9469739198684692,0.2494344860315323,-0.033347684890031815,-0.011966457590460777,0.0,0.0,0.0,0.0,-0.4077342351432294,0.4401735947239063,0.5,-0.3809538185596466,0.6065250039100647,0.0008597129490226507,-0.0018436289392411709,0.00415878277271986,-0.007302331738173962,-0.03518550097942352,-1.349222183227539,-0.9610579609870911,0.04260716214776039,0.6553353667259216,0.15171417593955994,0.0,0.0,0.0,0.0,-0.17573641881573848,-0.5736869452077669,0.5,-0.37140312790870667,-0.4868510663509369,0.0038872803561389446,-0.016156747937202454,0.006915445439517498,-0.013049832545220852,0.0674271434545517,0.42048394680023193,1.0074245929718018,0.08183930069208145,0.12390853464603424,0.17788079380989075,0.0,0.0,0.0,0.0,0.5843181824825328,0.13628008519336013,0.5
1.922,TAKEOFF,incipient,1.0,0.6215325593948364,0.013981418684124947,-0.00034029813832603395,-0.007577341981232166,0.007811327464878559,0.001686326926574111,0.28840628266334534,0.33611834049224854,1.943894386291504,-0.20104984939098358,-0.07830669730901718,-0.26034826040267944,0.0,0.0,0.0,0.0,-0.41139976991631905,0.4367496185605658,0.5,-0.3804806172847748,0.6063331365585327,0.001127513824030757,-0.0013802325120195746,0.005312234628945589,-0.0023021174129098654,-0.037836868315935135,-1.3546370267868042,-0.9563198089599609,-0.25094306468963623,0.13705158233642578,-0.08645161241292953,0.0,0.0,0.0,0.0,-0.1709343443694115,-0.5751360273144079,0.5,-0.37140312790870667,-0.4868510663509369,0.0038872803561389446,-0.015236151404678822,0.003866121405735612,-0.016219612210989,0.09135439246892929,0.4110771119594574,0.9614347815513611,-0.12694190442562103,-0.08529330044984818,0.015109323896467686,0.0,0.0,0.0,0.0,0.5831584837219932,0.14116013198869487,0.5
1.942,TAKEOFF,incipient,1.0,0.6215325593948364,0.013981418684124947,-0.00034029813832603395,-0.0076021477580070496,0.007863925769925117,0.001530527020804584,0.2866712212562561,0.3361678719520569,1.9418606758117676,-0.0717979446053505,0.08241374790668488,-0.4082140624523163,0.0,0.0,0.0,0.0,-0.41503655269322093,0.4332951187453272,0.5,-0.3804806172847748,0.6063331365585327,0.001127513824030757,-0.0011204765178263187,0.005329386331140995,-0.0008828200516290963,-0.04594052582979202,-1.3587267398834229,-0.9216290712356567,-0.04019762575626373,-0.25988736748695374,0.2431493103504181,0.0,0.0,0.0,0.0,-0.166120323626618,-0.5765449141898553,0.5,-0.37140312790870667,-0.4868510663509369,0.0038872803561389446,0.026883313432335854,-0.02010308764874935,0.009498082101345062,0.2632116377353668,0.09017963707447052,0.9491950869560242,0.1486978679895401,-0.2374584972858429,-0.18967267870903015,0.0,0.0,0.0,0.0,0.5819580290550896,0.1460303133541641,0.5
1.962,TAKEOFF,incipient,1.0,0.6215325593948364,0.013981418684124947,-0.00034029813832603395,-0.007473458535969257,0.008153880946338177,0.0012376982485875487,0.2866712212562561,0.3361678719520569,1.9418606758117676,-0.0717979446053505,0.08241374790668488,-0.4082140624523163,0.0,0.0,0.0,0.0,-0.418644329305673,0.42981033670702146,0.5,-0.3804806172847748,0.6063331365585327,0.001127513824030757,-0.00035504420520737767,0.006185966078191996,0.001894136774353683,-0.03743767365813255,-1.355094075202942,-0.9074671864509583,-0.05068780481815338,-0.10535477846860886,-0.2593930661678314,0.0,0.0,0.0,0.0,-0.1612946930306819,-0.5779135073695181,0.5,-0.36359119415283203,-0.49370497465133667,0.00778615428134799,0.03446418046951294,-0.021849755197763443,0.012770034372806549,0.27773040533065796,0.04755367338657379,0.9728953838348389,-0.049064844846725464,0.12688477337360382,-0.031359415501356125,0.0,0.0,0.0,0.0,0.5807169023794579,0.15089028892147818,0.5
1.982,TAKEOFF,incipient,1.0,0.6154378056526184,0.01573287881910801,0.0005989199853502214,0.012551180087029934,0.008962024003267288,0.00201928592287004,0.2357550859451294,0.20782631635665894,2.040217399597168,-0.023935917764902115,-0.08773840218782425,-0.021712159737944603,0.0,0.0,0.0,0.0,-0.42222284761260226,0.4262955159908503,0.5,-0.3804806172847748,0.6063331365585327,0.001127513824030757,-0.0005741985514760017,0.0055911303497850895,0.0019649576861411333,-0.030943719670176506,-1.3539665937423706,-0.9014450311660767,-0.07159387320280075,0.17630082368850708,-0.01092428807169199,0.0,0.0,0.0,0.0,-0.15645778983631906,-0.5792417112048598,0.5,-0.36359119415283203,-0.49370497465133667,0.00778615428134799,0.036820393055677414,-0.021672111004590988,0.014129935763776302,0.27773040533065796,0.04755367338657379,0.9728953838348389,-0.049064844846725464,0.12688477337360382,-0.031359415501356125,0.0,0.0,0.0,0.0,0.5794351904352276,0.15573971903561237,0.5
2.002,TAKEOFF,incipient,1.0,0.6154378056526184,0.01573287881910801,0.0005989199853502214,0.009187563322484493,0.015429380349814892,0.0025209735613316298,0.23345497250556946,0.20671585202217102,2.0401082038879395,0.15058298408985138,-0.11122515052556992,-0.18094368278980255,0.0,0.0,0.0,0.0,-0.42577185751774643,0.42275090224136463,0.5,-0.3804806172847748,0.6063331365585327,0.001127513824030757,-0.0010479867924004793,0.004482328426092863,-0.0007492235163226724,-0.03235027194023132,-1.3559399843215942,-0.9008771181106567,0.08756040036678314,0.31792792677879333,0.017553245648741722,0.0,0.0,0.0,0.0,-0.15160995208606703,-0.5805294328700832,0.5,-0.36359119415283203,-0.49370497465133667,0.00778615428134799,0.025143342092633247,-0.0161989014595747,0.005384088959544897,0.22912001609802246,0.13337869942188263,0.9814920425415039,0.22120660543441772,0.09668310731649399,-0.294402152299881,0.0,0.0,0.0,0.0,0.5781129827989607,0.16057826477854503,0.5
2.023,TAKEOFF,incipient,1.0,0.6154378056526184,0.01573287881910801,0.0005989199853502214,0.009663404896855354,0.015869537368416786,0.002374308416619897,0.23163802921772003,0.20603644847869873,2.0385119915008545,0.14607417583465576,0.05393471196293831,-0.10872142761945724,0.0,0.0,0.0,0.0,-0.42929111098713296,0.4191767431852978,0.5,-0.3804042935371399,0.6066212058067322,0.0019906777888536453,-6.613261939492077e-05,0.004715844057500362,0.0026102536357939243,-0.021357843652367592,-1.35891854763031,-0.8966789245605469,-0.032791294157505035,0.19533511996269226,-0.04515187814831734,0.0,0.0,0.0,0.0,-0.14675151858666016,-0.5817765823686177,0.5,-0.36359119415283203,-0.49370497465133667,0.00778615428134799,0.02805768884718418,-0.018513070419430733,0.0009518218575976789,0.23164473474025726,0.14586517214775085,0.9758552312850952,-0.07791578024625778,0.06080875173211098,0.10966669768095016,0.0,0.0,0.0,0.0,0.5767503718773908,0.16540558799294372,0.5
2.042,TAKEOFF,incipient,1.0,0.6154378056526184,0.01573287881910801,0.0005989199853502214,0.009663404896855354,0.015869537368416786,0.002374308416619897,0.23163802921772003,0.20603644847869873,2.0385119915008545,0.14607417583465576,0.05393471196293831,-0.10872142761945724,0.0,0.0,0.0,0.0,-0.43278036206641346,0.4155732886142516,0.5,-0.3804042935371399,0.6066212058067322,0.0019906777888536453,-0.000759132846724242,0.0032805660739541054,-0.0003627935075201094,-0.021357843652367592,-1.35891854763031,-0.8966789245605469,-0.032791294157505035,0.19533511996269226,-0.04515187814831734,0.0,0.0,0.0,0.0,-0.14188282888535067,-0.5829830725394094,0.5,-0.36359119415283203,-0.49370497465133667,0.00778615428134799,0.02414039336144924,-0.017496133223176003,-0.0024305225815624,0.23164473474025726,0.14586517214775085,0.9758552312850952,-0.07791578024625778,0.06080875173211098,0.10966669768095016,0.0,0.0,0.0,0.0,0.5753474529009648,0.1702213513057985,0.5
2.062,TAKEOFF,incipient,1.0,0.6154378056526184,0.01573287881910801,0.0005989199853502214,-0.014191500842571259,0.004465788137167692,-0.0009225051617249846,0.31713318824768066,0.39293333888053894,2.032921314239502,-0.20829053223133087,0.1665049046278,-0.025240173563361168,0.0,0.0,0.0,0.0,-0.4362393668980531,0.4119407903672393,0.5,-0.3804042935371399,0.6066212058067322,0.0019906777888536453,-6.956965080462396e-05,0.0038618971593677998,0.002450397703796625,-0.012549128383398056,-1.3629804849624634,-0.9056485891342163,-0.35967549681663513,-0.1458464413881302,-0.07070934772491455,0.0,0.0,0.0,0.0,-0.13700422324617845,-0.5841488190630117,0.5,-0.3684750199317932,-0.4894985258579254,0.00570150651037693,0.024878785014152527,-0.018038570880889893,-0.0026380750350654125,0.23271259665489197,0.145954430103302,0.9766041040420532,-0.21589605510234833,-0.05175416171550751,0.23579704761505127,0.0,0.0,0.0,0.0,0.573904323917188,0.1750252181520004,0.5
2.082,TAKEOFF,incipient,1.0,0.6152577996253967,0.015681462362408638,0.00011748050746973604,-0.014064483344554901,0.006458107847720385,0.003511690767481923,0.2972332835197449,0.38831308484077454,2.0885376930236816,-0.08498185127973557,0.1987455189228058,0.2081041932106018,0.0,0.0,0.0,0.0,-0.4396678837383734,0.4082795023130848,0.5,-0.3804042935371399,0.6066212058067322,0.0019906777888536453,-0.00038326153298839927,0.002980649471282959,0.0023510714527219534,-0.008854768238961697,-1.3656800985336304,-0.9008122682571411,-0.04860410466790199,-0.0678749606013298,0.22398772835731506,0.0,0.0,0.0,0.0,-0.13211604262619064,-0.5852737404674795,0.5,-0.3684750199317932,-0.4894985258579254,0.00570150651037693,0.01770654134452343,-0.011077536270022392,-0.004649811889976263,0.23271259665489197,0.145954430103302,0.9766041040420532,-0.21589605510234833,-0.05175416171550751,0.23579704761505127,0.0,0.0,0.0,0.0,0.5724210857837713,0.17981685279786314,0.5
2.102,TAKEOFF,incipient,1.0,0.6152577996253967,0.015681462362408638,0.00011748050746973604,-0.014204151928424835,0.006547572556883097,0.003656802698969841,0.29618263244628906,0.3858512341976166,2.0875532627105713,-0.1428636610507965,-0.1871020793914795,0.07175417989492416,0.0,0.0,0.0,0.0,-0.44306567297444693,0.4045896803326802,0.5,-0.3804042935371399,0.6066212058067322,0.0019906777888536453,-0.0005094691296108067,0.0020175077952444553,-0.00038611868512816727,-0.011492811143398285,-1.3661847114562988,-0.8993976712226868,-0.04335608705878258,-0.28342920541763306,-0.06111164018511772,0.0,0.0,0.0,0.0,-0.1272186286516127,-0.5863577581340619,0.5,-0.3684750199317932,-0.4894985258579254,0.00570150651037693,0.014946154318749905,-0.008024442940950394,-0.0053351521492004395,0.1715177595615387,0.2038770616054535,0.971575140953064,-0.04648574814200401,0.05589468032121658,-0.029145529493689537,0.0,0.0,0.0,0.0,0.5708978421615823,0.1845959203645873,0.5
2.122,TAKEOFF,incipient,1.0,0.6152577996253967,0.015681462362408638,0.00011748050746973604,-0.014524403028190136,0.0068753608502447605,0.0034416071139276028,0.29618263244628906,0.3858512341976166,2.0875532627105713,-0.1428636610507965,-0.1871020793914795,0.07175417989492416,0.0,0.0,0.0,0.0,-0.4464324971408442,0.40087158230110315,0.5,-0.38031259179115295,0.6063035130500793,0.0021334532648324966,-8.812619853415526e-06,0.002883962355554104,0.002993512200191617,-0.011492811143398285,-1.3661847114562988,-0.8993976712226868,-0.04335608705878258,-0.28342920541763306,-0.06111164018511772,0.0,0.0,0.0,0.0,-0.12231232359397279,-0.5874007963026976,0.5,-0.3684750199317932,-0.4894985258579254,0.00570150651037693,0.015363836660981178,-0.008008809760212898,-0.005241588689386845,0.14954987168312073,0.22931526601314545,0.9650807976722717,0.09782790392637253,0.22623775899410248,0.11357109993696213,0.0,0.0,0.0,0.0,0.5693346995074012,0.18936208685166409,0.5
2.142,TAKEOFF,incipient,1.0,0.6152577996253967,0.015681462362408638,0.00011748050746973604,-0.014506913721561432,-0.00044413682189770043,-0.007274243514984846,0.3557285666465759,0.3847154676914215,2.0256316661834717,-0.0030834598001092672,-0.010543602518737316,-0.31249961256980896,0.0,0.0,0.0,0.0,-0.4497681209362288,0.39712546806959365,0.5,-0.38031259179115295,0.6063035130500793,0.0021334532648324966,0.0006653317250311375,0.0036741583608090878,0.0050317817367613316,-0.02524912916123867,-1.3760910034179688,-0.8517098426818848,-0.34533363580703735,-0.021554449573159218,-0.08795834332704544,0.0,0.0,0.0,0.0,-0.11739747034618098,-0.5884027820773093,0.5,-0.3684750199317932,-0.4894985258579254,0.00570150651037693,0.014268646016716957,-0.014185404404997826,-0.007545383647084236,0.14767491817474365,0.22489146888256073,0.9667866230010986,-0.02091049589216709,0.071392722427845,0.14758583903312683,0.0,0.0,0.0,0.0,0.5677317670664801,0.1941150191602182,0.5
2.162,TAKEOFF,incipient,1.0,0.6152577996253967,0.015681462362408638,0.00011748050746973604,-0.015047713182866573,-0.00049693783512339,-0.007390204817056656,0.35328400135040283,0.3851515054702759,2.0215158462524414,-0.22578443586826324,0.025621766224503517,0.6445132493972778,53410.0,52805.0,53377.0,52055.0,-0.4530723112398028,0.3933515994473942,0.5,-0.38031259179115295,0.6063035130500793,0.0021334532648324966,0.0009511469397693872,0.003907847683876753,0.0054150354117155075,-0.029974613338708878,-1.3800795078277588,-0.8492707014083862,-2.3468704223632812,2.3561553955078125,-0.24300886690616608,53470.0,53061.0,52858.0,54107.0,-0.1124744123985651,-0.5893636454308981,0.5,-0.3691312372684479,-0.4895964562892914,0.004610572010278702,0.014082253910601139,-0.014941709116101265,-0.007723917253315449,0.19064673781394958,0.23680835962295532,0.932520866394043,0.22431731224060059,-0.439327210187912,0.10060370713472366,53545.0,53123.0,53400.0,52796.0,0.5660891568649087,0.19885438511628742,0.5
2.182,TAKEOFF,incipient,1.0,0.6138786673545837,0.01532137580215931,-0.000954301212914288,-0.01568504422903061,-0.001199511461891234,-0.006598010193556547,0.36083894968032837,0.3744508922100067,2.013805389404297,2.8299615383148193,3.5479438304901123,-4.579409599304199,52648.0,53121.0,54977.0,51975.0,-0.4563448371275989,0.38955024018345213,0.5,-0.38031259179115295,0.6063035130500793,0.0021334532648324966,0.0020020289812237024,0.004729908425360918,0.006709690671414137,-0.034484587609767914,-1.3768794536590576,-0.8174972534179688,1.7879971265792847,-1.9835149049758911,-0.3610031306743622,54111.0,55133.0,53780.0,53348.0,-0.10754349381486483,-0.5902833192104382,0.5,-0.3691312372684479,-0.4895964562892914,0.004610572010278702,0.03556391969323158,-0.029686685651540756,0.004263748414814472,0.3013768196105957,0.0720401406288147,0.9450664520263672,-0.09154676645994186,-0.058498114347457886,-1.3014018535614014,53883.0,53421.0,53916.0,53273.0,0.5644069837017842,0.20357985349403773,0.5
2.202,TAKEOFF,incipient,1.0,0.6138786673545837,0.01532137580215931,-0.000954301212914288,-0.01585550047457218,-0.002714215312153101,-0.007193171419203281,0.35509368777275085,0.3833412230014801,2.0226998329162598,2.721266984939575,2.9220330715179443,-10.142983436584473,55323.0,55234.0,54467.0,53174.0,-0.4595854698886193,0.38572165594798663,0.5,-0.38031259179115295,0.6063035130500793,0.0021334532648324966,0.006691882852464914,0.004778305068612099,0.005672924220561981,-0.0038717149291187525,-1.3770097494125366,-0.8563105463981628,-1.2991509437561035,0.839144229888916,-1.2320128679275513,54852.0,55046.0,54917.0,56035.0,-0.10260505920818573,-0.5911617391415692,0.5,-0.3691312372684479,-0.4895964562892914,0.004610572010278702,0.034700751304626465,-0.028285391628742218,0.010391094721853733,0.2782362103462219,0.07364068925380707,0.9109559655189514,0.595208466053009,0.14832939207553864,-1.4214471578598022,56160.0,54830.0,55507.0,55426.0,0.5626853651411888,0.20829109403891208,0.5
2.222,TAKEOFF,incipient,1.0,0.6138786673545837,0.01532137580215931,-0.000954301212914288,-0.01709016039967537,-0.0040151081047952175,-0.00481499545276165,0.37712880969047546,0.2825230658054352,1.7223817110061646,5.582898139953613,3.8704464435577393,-17.975910186767578,54124.0,57228.0,54161.0,56855.0,-0.46279398304082014,0.3818661143139216,0.5,-0.3800918459892273,0.6064050793647766,0.0027573658153414726,0.010101569816470146,0.0016376993153244257,0.0017737193265929818,-0.004841391928493977,-1.3760918378829956,-0.9434806704521179,6.549571990966797,-6.143107891082764,-10.739331245422363,57145.0,55797.0,54842.0,57288.0,-0.09765945371691472,-0.5919988438330888,0.5,-0.3691312372684479,-0.4895964562892914,0.004610572010278702,0.015687694773077965,-0.017026057466864586,0.00036089032073505223,0.2782362103462219,0.07364068925380707,0.9109559655189514,0.595208466053009,0.14832939207553864,-1.4214471578598022,57779.0,57354.0,57218.0,56694.0,0.5609244215039735,0.21298777749071132,0.5
2.242,TAKEOFF,incipient,1.0,0.6138786673545837,0.01532137580215931,-0.000954301212914288,-0.010461636818945408,-0.0063734836876392365,-0.01082763634622097,0.5533179044723511,0.06577673554420471,1.2439141273498535,2.2833781242370605,0.020002711564302444,-51.90357971191406,54244.0,59403.0,50262.0,60713.0,-0.4659701523469395,0.3779838847381856,0.5,-0.3800918459892273,0.6064050793647766,0.0027573658153414726,0.01485913060605526,0.0023954128846526146,0.008551294915378094,0.01075382437556982,-1.3628926277160645,-0.8896765112876892,2.412111282348633,-2.1620233058929443,9.741334915161133,56925.0,55801.0,56324.0,58822.0,-0.0927070229805991,-0.592794574781243,0.5,-0.3691312372684479,-0.4895964562892914,0.004610572010278702,0.009122234769165516,-0.012460664846003056,-0.002779430476948619,0.18377162516117096,0.19785833358764648,1.0770589113235474,-5.410040378570557,-0.006827506702393293,-1.3801169395446777,59516.0,59067.0,58913.0,57958.0,0.559124275859348,0.21766957560660546,0.5
2.262,TAKEOFF,incipient,1.0,0.6138786673545837,0.01532137580215931,-0.000954301212914288,0.013010408729314804,-0.026302160695195198,-0.011611634865403175,0.6197917461395264,0.06754189729690552,0.23760436475276947,10.970261573791504,6.9922966957092285,-50.515403747558594,50950.0,62926.0,47272.0,63173.0,-0.4691137558301693,0.37407523854287966,0.5,-0.3800918459892273,0.6064050793647766,0.0027573658153414726,0.019578438252210617,0.0022525819949805737,0.012951008044183254,-0.003267008578404784,-1.3739153146743774,-0.8437594175338745,2.4719324111938477,-1.6000356674194336,-2.003995180130005,57575.0,56553.0,57306.0,58477.0,-0.0877481131157904,-0.593548876373815,0.5,-0.36827918887138367,-0.48911479115486145,0.004690312314778566,0.0075134895741939545,-0.009900015778839588,-0.006260978989303112,0.18377162516117096,0.19785833358764648,1.0770589113235474,-5.410040378570557,-0.006827506702393293,-1.3801169395446777,60435.0,60311.0,59433.0,59992.0,0.557285054016281,0.22233616118407434,0.5
2.282,TAKEOFF,incipient,1.0,0.6191266775131226,0.010691934265196323,-0.0006286350544542074,0.005949623882770538,-0.02338084951043129,-0.00024407821183558553,0.6197917461395264,0.06754189729690552,0.23760436475276947,10.970261573791504,6.9922966957092285,-50.515403747558594,55267.0,60141.0,53682.0,60704.0,-0.4722245737896686,0.3701404488963153,0.5,-0.3800918459892273,0.6064050793647766,0.0027573658153414726,0.024267466738820076,0.002152168657630682,0.014010712504386902,0.12424255162477493,-1.254103422164917,-0.7203128337860107,11.285689353942871,-5.629332065582275,14.525068283081055,58118.0,57974.0,57177.0,58062.0,-0.08278307069185481,-0.5942616958940121,0.5,-0.36827918887138367,-0.48911479115486145,0.004690312314778566,0.00592380203306675,-0.007938960567116737,-0.008776168338954449,0.14440520107746124,0.24543064832687378,0.8913630247116089,1.9985551834106445,3.6201226711273193,-0.7198181748390198,60458.0,60506.0,61262.0,61564.0,0.5554068845147071,0.22698720808377462,0.5
2.302,TAKEOFF,incipient,1.0,0.6191266775131226,0.010691934265196323,-0.0006286350544542074,-0.0013251600321382284,-0.014368649572134018,0.004244709853082895,0.4787028431892395,0.2210014909505844,-1.6657774448394775,-11.103028297424316,-8.383951187133789,-22.687820434570312,54240.0,61415.0,57717.0,57677.0,-0.4753023888159185,0.36617979079392315,0.5,-0.3800918459892273,0.6064050793647766,0.0027573658153414726,0.02896036207675934,0.001776859164237976,0.02607274055480957,0.4618217647075653,-1.1636096239089966,-0.42889344692230225,30.844928741455078,-5.726170539855957,12.842682838439941,59711.0,57472.0,57335.0,57822.0,-0.07781224270675223,-0.594932983524149,0.5,-0.36827918887138367,-0.48911479115486145,0.004690312314778566,0.003885232377797365,-0.006357737351208925,-0.010572120547294617,0.13314956426620483,0.23555098474025726,0.8629938364028931,0.2279975563287735,8.315428733825684,-2.8732120990753174,61370.0,61178.0,62141.0,61754.0,0.5534898986165429,0.23162239125233375,0.5
2.322,TAKEOFF,incipient,1.0,0.6191266775131226,0.010691934265196323,-0.0006286350544542074,-0.004799317568540573,-0.010953172110021114,0.01799602620303631,0.3684708774089813,0.29351040720939636,-2.1078526973724365,35.548828125,-18.217031478881836,-14.307271957397461,56851.0,63472.0,52459.0,57900.0,-0.4783469858059161,0.36219354103903434,0.5,-0.3790638744831085,0.6070277690887451,0.00394014734774828,0.027076220139861107,0.001758379046805203,0.04378397762775421,0.4618217647075653,-1.1636096239089966,-0.42889344692230225,30.844928741455078,-5.726170539855957,12.842682838439941,61164.0,58660.0,56447.0,56218.0,-0.07283597656278504,-0.5955626923491307,0.5,-0.36827918887138367,-0.48911479115486145,0.004690312314778566,0.01024831086397171,-0.013089874759316444,4.6160901547409594e-05,0.13314956426620483,0.23555098474025726,0.8629938364028931,0.2279975563287735,8.315428733825684,-2.8732120990753174,62542.0,61351.0,61962.0,62542.0,0.5515342302965136,0.23624138674506687,0.5
2.342,TAKEOFF,incipient,1.0,0.6191266775131226,0.010691934265196323,-0.0006286350544542074,0.0005885560531169176,-0.013345543295145035,0.02818259410560131,0.869343101978302,0.39527764916419983,-2.402322292327881,30.420578002929688,-13.750073432922363,-8.546367645263672,57205.0,63118.0,53490.0,57637.0,-0.4813581519782078,0.35818197822353454,0.5,-0.3790638744831085,0.6070277690887451,0.00394014734774828,0.04671862721443176,-0.0315973199903965,0.06965766102075577,1.7896232604980469,-1.0726633071899414,-0.15834204852581024,37.74311828613281,-16.267330169677734,14.973066329956055,61520.0,60761.0,55494.0,54480.0,-0.06785462004231885,-0.5961507783597305,0.5,-0.36827918887138367,-0.48911479115486145,0.004690312314778566,-0.006380293983966112,0.0025726782623678446,0.017057303339242935,0.10723691433668137,0.021060341969132423,0.8161712884902954,-12.207261085510254,27.45664405822754,-0.035484883934259415,63065.0,57810.0,61172.0,65535.0,0.5495400162327906,0.24084387174861696,0.5
2.362,TAKEOFF,incipient,1.0,0.6191266775131226,0.010691934265196323,-0.0006286350544542074,0.0017689825035631657,-0.016784774139523506,0.041975632309913635,1.5164432525634766,0.7137569785118103,-2.6456732749938965,59.745567321777344,-49.970703125,-5.424086093902588,56149.0,65535.0,56127.0,51719.0,-0.48433567688776014,0.3541453827083944,0.5,-0.3790638744831085,0.6070277690887451,0.00394014734774828,0.050697457045316696,-0.04006210342049599,0.10861197859048843,2.5935542583465576,-0.8104028701782227,0.028568031266331673,17.496944427490234,-1.8858256340026855,15.669533729553223,60859.0,59399.0,56236.0,55360.0,-0.06286852128347666,-0.5966972004556658,0.5,-0.36885493993759155,-0.48787787556648254,0.004563595168292522,-0.010582294315099716,0.008467894978821278,0.05124896764755249,-0.3463863432407379,-0.4186166524887085,0.8101530075073242,-26.38811492919922,25.336101531982422,2.9476609230041504,62061.0,59365.0,62993.0,64662.0,0.5475073957974378,0.24542952460351566,0.5
2.382,TAKEOFF,incipient,1.0,0.6151995062828064,0.014441149309277534,0.002150793094187975,-0.01161173265427351,-0.0259713102132082,0.07194395363330841,2.6251158714294434,1.702186107635498,-2.7795963287353516,53.96876907348633,-53.04972457885742,7.7678680419921875,56786.0,65177.0,56607.0,51365.0,-0.4872793524406677,0.3500840366040753,0.5,-0.3790638744831085,0.6070277690887451,0.00394014734774828,0.06018756702542305,-0.05056490749120712,0.12587246298789978,2.5935542583465576,-0.8104028701782227,0.028568031266331673,17.496944427490234,-1.8858256340026855,15.669533729553223,62113.0,58271.0,54738.0,55500.0,-0.057878028755808,-0.597201920448471,0.5,-0.36885493993759155,-0.48787787556648254,0.004563595168292522,0.006508568301796913,0.0003443854220677167,0.10148219019174576,-0.8293901681900024,-0.9935817718505859,0.8957816362380981,-15.063700675964355,13.244888305664062,3.0296757221221924,62675.0,61762.0,61971.0,61538.0,0.5454365110466725,0.2499980248266635,0.5
2.402,TAKEOFF,incipient,1.0,0.6151995062828064,0.014441149309277534,0.002150793094187975,-0.019943442195653915,-0.036850638687610626,0.09419810026884079,3.6740341186523438,2.7567427158355713,-2.7938289642333984,49.47355270385742,-53.002349853515625,-1.094622015953064,57309.0,65199.0,56170.0,50654.0,-0.49018897290869606,0.3459982237508129,0.5,-0.3790638744831085,0.6070277690887451,0.00394014734774828,0.04432663694024086,-0.059981781989336014,0.19660340249538422,2.6616971492767334,-0.2131531685590744,0.7472987174987793,-26.826330184936523,-40.98876953125,8.943502426147461,58109.0,58840.0,58409.0,53855.0,-0.052883491235935075,-0.5976649030641659,0.5,-0.36885493993759155,-0.48787787556648254,0.004563595168292522,0.011419501155614853,0.0042845867574214935,0.15627577900886536,-0.874751091003418,-1.1432286500930786,0.896969735622406,18.335338592529297,4.300001621246338,-2.8991429805755615,63763.0,62182.0,59189.0,60658.0,0.5433275067109363,0.25454905313372783,0.5
2.422,TAKEOFF,incipient,1.0,0.6151995062828064,0.014441149309277534,0.002150793094187975,-0.026768038049340248,-0.04827917367219925,0.09598134458065033,4.6266770362854,3.8875577449798584,-2.938438892364502,0.6654606461524963,-59.071598052978516,7.6069183349609375,54235.0,64765.0,58496.0,52053.0,-0.49306433494366014,0.34188822969878047,0.5,-0.3774583637714386,0.600287675857544,0.014648497104644775,0.04323580488562584,-0.07115666568279266,0.24128811061382294,2.0094680786132812,0.5976418852806091,0.8948922157287598,-37.65373611450195,-26.446229934692383,6.4647064208984375,55960.0,57372.0,59160.0,55318.0,-0.047885257783177405,-0.5980861159457211,0.5,-0.36885493993759155,-0.48787787556648254,0.004563595168292522,0.034378353506326675,-0.011491692624986172,0.2151971310377121,0.459391713142395,-1.6261550188064575,0.9086381793022156,27.30109405517578,-0.9632412791252136,2.6970396041870117,63908.0,60682.0,57929.0,60423.0,0.541180530184781,0.2590822914614569,0.5
2.442,TAKEOFF,incipient,1.0,0.6151995062828064,0.014441149309277534,0.002150793094187975,-0.05754208564758301,-0.033421073108911514,0.11956239491701126,4.417732238769531,5.173882961273193,-2.8547332286834717,-29.63248062133789,-69.2856216430664,6.226238250732422,51929.0,63250.0,61438.0,52142.0,-0.4959052375916354,0.3377543416881323,0.5,-0.3774583637714386,0.600287675857544,0.014648497104644775,0.04124070703983307,-0.08038118481636047,0.2963038384914398,1.6379621028900146,0.8408274054527283,0.9523884057998657,-29.306468963623047,-17.526060104370117,6.971515655517578,56429.0,56500.0,57742.0,55309.0,-0.04288367771515665,-0.5984655296553199,0.5,-0.36885493993759155,-0.48787787556648254,0.004563595168292522,0.03447316586971283,-0.01239999383687973,0.28292742371559143,0.8525514602661133,-1.4856678247451782,0.9193761944770813,3.542442560195923,-16.259538650512695,3.0401222705841064,62625.0,60315.0,58339.0,59116.0,0.5389957315165668,0.2635974229899091,0.5
2.462,TAKEOFF,incipient,1.0,0.6151995062828064,0.014441149309277534,0.002150793094187975,-0.08770296722650528,-0.031235408037900925,0.13352394104003906,3.7138588428497314,6.5066728591918945,-2.746256113052368,-31.754804611206055,-71.75958251953125,-0.0888833999633789,50783.0,63905.0,62436.0,49856.0,-0.4987114823070026,0.3335968486289285,0.5,-0.3774583637714386,0.600287675857544,0.014648497104644775,0.03710894286632538,-0.08654221892356873,0.3462466299533844,1.0190750360488892,1.212801456451416,1.0850849151611328,-17.7962703704834,-13.539978981018066,7.402470588684082,56268.0,54706.0,56882.0,55679.0,-0.03787910058338343,-0.5988031176764145,0.5,-0.36296650767326355,-0.492766797542572,0.026892801746726036,0.05457976832985878,-0.024639727547764778,0.3413074016571045,0.8980713486671448,-1.1191387176513672,0.9852693676948547,-7.841451644897461,-36.86904525756836,0.743478536605835,59232.0,59331.0,60074.0,58261.0,0.5367732633979758,0.2680941321645947,0.5
2.482,TAKEOFF,incipient,1.0,0.6110073924064636,0.018196959048509598,0.014355641789734364,-0.10053839534521103,-0.047580622136592865,0.15247969329357147,3.0819313526153564,7.916375637054443,-2.7441346645355225,-36.86830520629883,-61.04429626464844,14.337445259094238,48583.0,62824.0,63466.0,51884.0,-0.5014828729663234,0.3294160410809442,0.5,-0.3774583637714386,0.600287675857544,0.014648497104644775,0.03162512928247452,-0.09036090224981308,0.3951568901538849,0.6589418649673462,1.476256251335144,1.233026385307312,-2.6216487884521484,-20.88348960876465,7.04572868347168,56297.0,56902.0,55686.0,51957.0,-0.03287187614882784,-0.5990988564155804,0.5,-0.36296650767326355,-0.492766797542572,0.026892801746726036,0.05986110866069794,-0.028516655787825584,0.3957788348197937,0.6390486359596252,-0.3369387984275818,0.9916098117828369,-17.488435745239258,-33.93901062011719,2.132014274597168,56848.0,59180.0,60508.0,56674.0,0.5345132811533414,0.27257210471852933,0.5
2.502,TAKEOFF,incipient,1.0,0.6110073924064636,0.018196959048509598,0.014355641789734364,-0.13220392167568207,-0.06367267668247223,0.17853711545467377,2.374502420425415,9.066246032714844,-2.6249868869781494,-32.079891204833984,-19.832237243652344,9.299397468566895,52489.0,62084.0,61564.0,51676.0,-0.5042192158820477,0.3252122112333623,0.5,-0.3774583637714386,0.600287675857544,0.014648497104644775,0.022925883531570435,-0.08900631219148636,0.45256665349006653,0.5446441173553467,1.9547089338302612,1.3482247591018677,6.746993064880371,-31.715030670166016,8.534821510314941,54958.0,57643.0,55968.0,49239.0,-0.027862354357475205,-0.5993527252041643,0.5,-0.36296650767326355,-0.492766797542572,0.026892801746726036,0.02219110168516636,0.002366358647122979,0.4312959611415863,0.6390486359596252,-0.3369387984275818,0.9916098117828369,-17.488435745239258,-33.93901062011719,2.132014274597168,56109.0,56818.0,60052.0,57626.0,0.5322159427287919,0.27703102769419763,0.5
2.522,TAKEOFF,incipient,1.0,0.6110073924064636,0.018196959048509598,0.014355641789734364,-0.16664567589759827,-0.07029629498720169,0.19247467815876007,1.7516794204711914,9.41163158416748,-2.4751250743865967,-34.19874572753906,22.02594757080078,13.907685279846191,54184.0,60371.0,61080.0,52071.0,-0.5069203198160489,0.32098565288435343,0.5,-0.3740147650241852,0.5924733877182007,0.05164160206913948,0.012476871721446514,-0.08913079649209976,0.49522683024406433,0.6019425988197327,2.570432662963867,1.4291272163391113,17.36349868774414,-23.85489845275879,8.071659088134766,54535.0,57470.0,54914.0,47236.0,-0.02285088531586905,-0.5995647062997296,0.5,-0.36296650767326355,-0.492766797542572,0.026892801746726036,0.023995494470000267,0.004001910332590342,0.4657650589942932,0.01528714969754219,0.5753999948501587,1.01810622215271,-14.355009078979492,-24.156883239746094,2.9778144359588623,56963.0,56291.0,57909.0,56373.0,0.5298814086812124,0.2814705894654253,0.5
