timestamp_sec,flight_state,fault_type,fault_motor_health,cf1_X,cf1_Y,cf1_Z,cf1_VelX,cf1_VelY,cf1_VelZ,cf1_Roll,cf1_Pitch,cf1_Yaw,cf1_GyroX,cf1_GyroY,cf1_GyroZ,cf1_Motor1,cf1_Motor2,cf1_Motor3,cf1_Motor4,cf1_targ_x,cf1_targ_y,cf1_targ_z,cf2_X,cf2_Y,cf2_Z,cf2_VelX,cf2_VelY,cf2_VelZ,cf2_Roll,cf2_Pitch,cf2_Yaw,cf2_GyroX,cf2_GyroY,cf2_GyroZ,cf2_Motor1,cf2_Motor2,cf2_Motor3,cf2_Motor4,cf2_targ_x,cf2_targ_y,cf2_targ_z,cf3_X,cf3_Y,cf3_Z,cf3_VelX,cf3_VelY,cf3_VelZ,cf3_Roll,cf3_Pitch,cf3_Yaw,cf3_GyroX,cf3_GyroY,cf3_GyroZ,cf3_Motor1,cf3_Motor2,cf3_Motor3,cf3_Motor4,cf3_targ_x,cf3_targ_y,cf3_targ_z
0.002,TAKEOFF,abrupt,1.0,0.5993460416793823,0.005568787455558777,-0.0005309315165504813,0.02001442201435566,-0.010704235173761845,-0.00244727311655879,0.28633853793144226,0.1789582371711731,4.848184108734131,-0.011375823989510536,0.09743327647447586,-0.13764651119709015,0.0,0.0,0.0,0.0,0.6,0.0,0.5,-0.4156312942504883,0.6280590891838074,0.003310420084744692,0.0010532798478379846,0.0034432802349328995,0.007699171081185341,-0.22533102333545685,-1.3711405992507935,-1.5794216394424438,-0.07086590677499771,-0.3287014067173004,-0.09761592745780945,0.0,0.0,0.0,0.0,-0.3000025448675481,0.51961377298239,0.5,-0.3619772791862488,-0.4914378225803375,0.0027973942924290895,-0.029077522456645966,0.029153972864151,-0.007722886279225349,-0.11149029433727264,0.6142200231552124,-0.9269217252731323,0.019994966685771942,0.14320173859596252,0.1226067841053009,0.0,0.0,0.0,0.0,-0.29999491024331576,-0.5196181808098181,0.5
0.012,TAKEOFF,abrupt,1.0,0.5993460416793823,0.005568787455558777,-0.0005309315165504813,0.02001442201435566,-0.010704235173761845,-0.00244727311655879,0.28633853793144226,0.1789582371711731,4.848184108734131,-0.011375823989510536,0.09743327647447586,-0.13764651119709015,0.0,0.0,0.0,0.0,0.6,0.0,0.5,-0.4156312942504883,0.6280590891838074,0.003310420084744692,0.0010532798478379846,0.0034432802349328995,0.007699171081185341,-0.22533102333545685,-1.3711405992507935,-1.5794216394424438,-0.07086590677499771,-0.3287014067173004,-0.09761592745780945,0.0,0.0,0.0,0.0,-0.3000025448675481,0.51961377298239,0.5,-0.3619772791862488,-0.4914378225803375,0.0027973942924290895,-0.029077522456645966,0.029153972864151,-0.007722886279225349,-0.11149029433727264,0.6142200231552124,-0.9269217252731323,0.019994966685771942,0.14320173859596252,0.1226067841053009,0.0,0.0,0.0,0.0,-0.29999491024331576,-0.5196181808098181,0.5
0.032,TAKEOFF,abrupt,1.0,0.5974190831184387,0.001954043749719858,-0.00025002277106978,0.0006425437750294805,-0.022496690973639488,-0.004718784708529711,0.33896443247795105,0.3895399272441864,4.822645664215088,-0.03796934336423874,0.05900992080569267,0.024653172120451927,0.0,0.0,0.0,0.0,0.6,0.0,0.5,-0.4156312942504883,0.6280590891838074,0.003310420084744692,0.0007690948550589383,-0.003330207196995616,-0.0052094487473368645,-0.1764889657497406,-1.3697595596313477,-1.6162595748901367,-0.11023509502410889,0.5060070753097534,0.05930516496300697,0.0,0.0,0.0,0.0,-0.3000025448675481,0.51961377298239,0.5,-0.3619772791862488,-0.4914378225803375,0.0027973942924290895,-0.027996022254228592,0.03111349418759346,-0.004738922230899334,-0.11231064796447754,0.5960055589675903,-0.9480013847351074,0.10307111591100693,0.052647665143013,0.2987208664417267,0.0,0.0,0.0,0.0,-0.29999491024331576,-0.5196181808098181,0.5
0.049,TAKEOFF,abrupt,1.0,0.5974190831184387,0.001954043749719858,-0.00025002277106978,-0.0006803433643653989,-0.02340954728424549,-0.004076516721397638,0.35201525688171387,0.34087178111076355,4.761390209197998,0.03744776174426079,0.019854063168168068,-0.12274136394262314,0.0,0.0,0.0,0.0,0.6,0.0,0.5,-0.4156312942504883,0.6280590891838074,0.003310420084744692,0.0004020734049845487,-0.002187632257118821,-0.002359057078137994,-0.18742585182189941,-1.3649438619613647,-1.622359275817871,0.08112235367298126,0.045920029282569885,0.06040508672595024,0.0,0.0,0.0,0.0,-0.3000025448675481,0.51961377298239,0.5,-0.3619772791862488,-0.4914378225803375,0.0027973942924290895,-0.022263797000050545,0.027226027101278305,-0.002629096619784832,-0.11218726634979248,0.5944589972496033,-0.9468209147453308,0.2559606432914734,-0.08154045045375824,0.09468596428632736,0.0,0.0,0.0,0.0,-0.29999491024331576,-0.5196181808098181,0.5
0.069,TAKEOFF,abrupt,1.0,0.5974190831184387,0.001954043749719858,-0.00025002277106978,-0.0010474141454324126,-0.024078818038105965,-0.003983915317803621,0.3517621159553528,0.3377607464790344,4.7629218101501465,-0.14843131601810455,0.06762586534023285,0.31996241211891174,0.0,0.0,0.0,0.0,0.6,0.0,0.5,-0.4158506393432617,0.627488374710083,0.0016320714494213462,0.0004020734049845487,-0.002187632257118821,-0.002359057078137994,-0.18737663328647614,-1.3670223951339722,-1.622539758682251,-0.14337028563022614,-0.17392103374004364,-0.05551902949810028,0.0,0.0,0.0,0.0,-0.3000025448675481,0.51961377298239,0.5,-0.362552672624588,-0.4887295365333557,0.0036300718784332275,-0.0228488240391016,0.02772682160139084,-0.0025430533569306135,-0.07278304547071457,0.5395631194114685,-0.9661978483200073,0.04134513810276985,0.01673598773777485,0.0931839868426323,0.0,0.0,0.0,0.0,-0.29999491024331576,-0.5196181808098181,0.5
0.089,TAKEOFF,abrupt,1.0,0.5974190831184387,0.001954043749719858,-0.00025002277106978,-0.0015106773935258389,-0.003389266086742282,-0.003392959013581276,0.18690775334835052,0.3270888924598694,4.7985124588012695,0.12411342561244965,0.06683803349733353,0.06995198875665665,0.0,0.0,0.0,0.0,0.6,0.0,0.5,-0.4158506393432617,0.627488374710083,0.0016320714494213462,0.00019814954430330545,-0.0021660984493792057,-0.002367299748584628,-0.18920941650867462,-1.3649545907974243,-1.624496340751648,0.1301218569278717,-0.04535335302352905,-0.0439133457839489,0.0,0.0,0.0,0.0,-0.3000025448675481,0.51961377298239,0.5,-0.362552672624588,-0.4887295365333557,0.0036300718784332275,0.0071916417218744755,0.0063619655556976795,-0.0015618898905813694,0.09734173119068146,0.2880277931690216,-0.8880009055137634,-0.12641793489456177,-0.13565748929977417,-0.02059219405055046,0.0,0.0,0.0,0.0,-0.29999491024331576,-0.5196181808098181,0.5
0.11,TAKEOFF,abrupt,1.0,0.5974190831184387,0.001954043749719858,-0.00025002277106978,-0.0012316764332354069,-0.011416153982281685,-0.007298152428120375,0.2497653067111969,0.32662084698677063,4.750983238220215,-0.1416035145521164,0.09799504280090332,0.1836840808391571,0.0,0.0,0.0,0.0,0.6,0.0,0.5,-0.4158506393432617,0.627488374710083,0.0016320714494213462,0.0002121969882864505,-0.0019085912499576807,-0.0008936511003412306,-0.1865280121564865,-1.365059733390808,-1.62063729763031,0.2412189096212387,-0.20846478641033173,-0.20971530675888062,0.0,0.0,0.0,0.0,-0.3000025448675481,0.51961377298239,0.5,-0.362552672624588,-0.4887295365333557,0.0036300718784332275,0.026212964206933975,-0.010170328430831432,0.0029571072664111853,0.30699634552001953,0.055673085153102875,-0.7750337719917297,-0.08982999622821808,0.29345160722732544,0.019162049517035484,0.0,0.0,0.0,0.0,-0.29999491024331576,-0.5196181808098181,0.5
0.129,TAKEOFF,abrupt,1.0,0.5984796285629272,0.006580079905688763,-0.0009935814887285233,-0.0007220599218271673,0.0030488125048577785,-0.00014502534759230912,0.1334455907344818,0.3064129948616028,4.788581848144531,-0.06358317285776138,-0.14665639400482178,-0.2559039890766144,0.0,0.0,0.0,0.0,0.6,0.0,0.5,-0.4158506393432617,0.627488374710083,0.0016320714494213462,0.00011494351201690733,-0.0026834856253117323,-0.0041954549960792065,-0.1792190670967102,-1.3639417886734009,-1.6524559259414673,-0.11927583068609238,0.013173562474548817,0.08098547160625458,0.0,0.0,0.0,0.0,-0.3000025448675481,0.51961377298239,0.5,-0.362552672624588,-0.4887295365333557,0.0036300718784332275,0.03722419589757919,-0.02014990523457527,0.006997378543019295,0.30738580226898193,0.05475342646241188,-0.773345410823822,0.12120348960161209,0.04952957481145859,0.02302895113825798,0.0,0.0,0.0,0.0,-0.29999491024331576,-0.5196181808098181,0.5
0.15,TAKEOFF,abrupt,1.0,0.5984796285629272,0.006580079905688763,-0.0009935814887285233,-0.012584753334522247,0.0011711394181475043,-0.000196890949155204,0.13701952993869781,0.39682820439338684,4.8058061599731445,-0.017847826704382896,0.19338349997997284,-0.2609603703022003,0.0,0.0,0.0,0.0,0.6,0.0,0.5,-0.4158506393432617,0.627488374710083,0.0016320714494213462,6.536459841299802e-05,-0.0029139257967472076,-0.0040655797347426414,-0.1792190670967102,-1.3639417886734009,-1.6524559259414673,-0.11927583068609238,0.013173562474548817,0.08098547160625458,0.0,0.0,0.0,0.0,-0.3000025448675481,0.51961377298239,0.5,-0.362552672624588,-0.4887295365333557,0.0036300718784332275,0.038105349987745285,-0.020800720900297165,0.006979461759328842,0.34485504031181335,0.02955528348684311,-0.7308568954467773,0.138217493891716,0.031033923849463463,-0.19548465311527252,0.0,0.0,0.0,0.0,-0.29999491024331576,-0.5196181808098181,0.5
0.17,TAKEOFF,abrupt,1.0,0.5984796285629272,0.006580079905688763,-0.0009935814887285233,0.007227712776511908,-0.005409718956798315,0.00023598807456437498,0.1393326073884964,0.3946443200111389,4.806948661804199,0.03504493087530136,-0.13770537078380585,0.003921974450349808,0.0,0.0,0.0,0.0,0.6,0.0,0.5,-0.4158899784088135,0.6273504495620728,0.0011729227844625711,-3.6911314964527264e-05,-0.0025894560385495424,-0.0018352392362430692,-0.17916350066661835,-1.3614000082015991,-1.6513769626617432,-0.1533345729112625,-0.18172430992126465,-0.08393912762403488,0.0,0.0,0.0,0.0,-0.3000025448675481,0.51961377298239,0.5,-0.35272541642189026,-0.49531465768814087,0.00565072288736701,0.04219035059213638,-0.02602878399193287,0.010127436369657516,0.34549814462661743,0.0426289439201355,-0.6812781691551208,-0.01821407675743103,-0.09298789501190186,-0.2366737723350525,0.0,0.0,0.0,0.0,-0.29999491024331576,-0.5196181808098181,0.5
0.19,TAKEOFF,abrupt,1.0,0.5984796285629272,0.006580079905688763,-0.0009935814887285233,-0.0035725750494748354,-0.004958391189575195,-0.00034116735332645476,0.19175884127616882,0.3295287787914276,4.828615665435791,-0.08213173598051071,0.19735775887966156,0.0809183120727539,0.0,0.0,0.0,0.0,0.6,0.0,0.5,-0.4158899784088135,0.6273504495620728,0.0011729227844625711,0.0004997673095203936,-0.0026030996814370155,-0.00046020542504265904,-0.18501485884189606,-1.3582814931869507,-1.6505138874053955,0.10944145172834396,-0.2381478101015091,0.1399526298046112,0.0,0.0,0.0,0.0,-0.3000025448675481,0.51961377298239,0.5,-0.35272541642189026,-0.49531465768814087,0.00565072288736701,0.03331001475453377,-0.03066100925207138,0.020337887108325958,0.3757617771625519,0.11251028627157211,-0.7370664477348328,-0.017916463315486908,0.210546612739563,0.13812340795993805,0.0,0.0,0.0,0.0,-0.29999491024331576,-0.5196181808098181,0.5
0.21,TAKEOFF,abrupt,1.0,0.5984796285629272,0.006580079905688763,-0.0009935814887285233,0.005409135948866606,-0.008610723540186882,-0.0007083517266437411,0.22511880099773407,0.26270413398742676,4.810099124908447,0.10709120333194733,-0.12451956421136856,-0.06793323159217834,0.0,0.0,0.0,0.0,0.6,0.0,0.5,-0.4158899784088135,0.6273504495620728,0.0011729227844625711,0.0004808386438526213,-0.0036876359954476357,-0.003740261308848858,-0.18501485884189606,-1.3582814931869507,-1.6505138874053955,0.10944145172834396,-0.2381478101015091,0.1399526298046112,0.0,0.0,0.0,0.0,-0.3000025448675481,0.51961377298239,0.5,-0.35272541642189026,-0.49531465768814087,0.00565072288736701,0.03165719658136368,-0.02939394675195217,0.027426443994045258,0.362690269947052,0.13667581975460052,-0.7907434105873108,-0.11722030490636826,-0.099844790995121,-0.17285872995853424,0.0,0.0,0.0,0.0,-0.29999491024331576,-0.5196181808098181,0.5
0.229,TAKEOFF,abrupt,1.0,0.6013643741607666,0.005297579802572727,-0.0010044998489320278,0.011795124970376492,-0.01056738756597042,-0.0007088182610459626,0.24517302215099335,0.21975992619991302,4.790109634399414,0.1846979856491089,-0.12764453887939453,-0.23028747737407684,0.0,0.0,0.0,0.0,0.6,0.0,0.5,-0.4158899784088135,0.6273504495620728,0.0011729227844625711,0.00030777620850130916,-0.0030210812110453844,-0.0018988002557307482,-0.17703363299369812,-1.3595311641693115,-1.6749309301376343,0.13000674545764923,-0.1434272825717926,-0.08004128932952881,0.0,0.0,0.0,0.0,-0.3000025448675481,0.51961377298239,0.5,-0.35272541642189026,-0.49531465768814087,0.00565072288736701,0.030371366068720818,-0.02857557125389576,0.03153473138809204,0.33320897817611694,0.17426326870918274,-0.7801599502563477,0.012639176100492477,-0.3221644461154938,-0.03527740389108658,0.0,0.0,0.0,0.0,-0.29999491024331576,-0.5196181808098181,0.5
0.249,TAKEOFF,abrupt,1.0,0.6013643741607666,0.005297579802572727,-0.0010044998489320278,0.012212270870804787,-0.010895848274230957,-0.0009409633348695934,0.24488216638565063,0.2201172560453415,4.78737211227417,-0.05382733792066574,-0.05734199658036232,-0.1073048859834671,0.0,0.0,0.0,0.0,0.6,0.0,0.5,-0.4158899784088135,0.6273504495620728,0.0011729227844625711,0.0003771306946873665,-0.004001318011432886,-0.0047299545258283615,-0.18600662052631378,-1.357037901878357,-1.6724196672439575,0.05635681748390198,-0.41343167424201965,-0.017743641510605812,0.0,0.0,0.0,0.0,-0.3000025448675481,0.51961377298239,0.5,-0.35272541642189026,-0.49531465768814087,0.00565072288736701,0.006333695724606514,-0.01323517132550478,0.008949298411607742,0.22095556557178497,0.3570379912853241,-0.7959847450256348,-0.10174208879470825,0.13684535026550293,0.07816394418478012,0.0,0.0,0.0,0.0,-0.29999491024331576,-0.5196181808098181,0.5
0.27,TAKEOFF,abrupt,1.0,0.6013643741607666,0.005297579802572727,-0.0010044998489320278,0.012680470012128353,-0.011305159889161587,-0.0009713529143482447,0.24394646286964417,0.2206333875656128,4.7857346534729,0.20159076154232025,0.0739557296037674,0.029342617839574814,0.0,0.0,0.0,0.0,0.6,0.0,0.5,-0.4158744812011719,0.6272807121276855,0.000854920013807714,5.05214229633566e-05,-0.002740868367254734,-0.0016108581330627203,-0.18053746223449707,-1.3562170267105103,-1.6999826431274414,0.029518453404307365,-0.07516831159591675,0.2413911372423172,0.0,0.0,0.0,0.0,-0.3000025448675481,0.51961377298239,0.5,-0.36158326268196106,-0.4909389019012451,0.005738524720072746,0.002317242557182908,-0.011820628307759762,0.0028875793796032667,0.2050689160823822,0.3912220895290375,-0.8661679029464722,0.08434371650218964,-0.15513822436332703,0.0588383711874485,0.0,0.0,0.0,0.0,-0.29999491024331576,-0.5196181808098181,0.5
0.289,TAKEOFF,abrupt,1.0,0.6013643741607666,0.005297579802572727,-0.0010044998489320278,0.013055751100182533,-0.011656655929982662,-0.0009819052647799253,0.24453268945217133,0.2208741158246994,4.78621768951416,-0.07503398507833481,0.23714561760425568,0.09868055582046509,0.0,0.0,0.0,0.0,0.6,0.0,0.5,-0.4158744812011719,0.6272807121276855,0.000854920013807714,0.00029196974355727434,-0.0022492774296551943,-0.001513623632490635,-0.19075404107570648,-1.3552932739257812,-1.6896181106567383,0.2603555917739868,-0.3056827485561371,-0.22741630673408508,0.0,0.0,0.0,0.0,-0.3000025448675481,0.51961377298239,0.5,-0.36158326268196106,-0.4909389019012451,0.005738524720072746,0.0029915119521319866,-0.012921638786792755,-0.0014450118178501725,0.21402589976787567,0.38842740654945374,-0.9100890159606934,-0.0682944655418396,0.11828555166721344,0.06275244802236557,0.0,0.0,0.0,0.0,-0.29999491024331576,-0.5196181808098181,0.5
0.31,TAKEOFF,abrupt,1.0,0.6013643741607666,0.005297579802572727,-0.0010044998489320278,0.013625244610011578,-0.011816658079624176,-0.0008910997421480715,0.242961585521698,0.2186681032180786,4.785595417022705,0.06479457020759583,0.21889205276966095,-0.029894225299358368,0.0,0.0,0.0,0.0,0.6,0.0,0.5,-0.4158744812011719,0.6272807121276855,0.000854920013807714,0.0005134817329235375,-0.001495016855187714,0.0007542654639109969,-0.19692263007164001,-1.3547194004058838,-1.6856753826141357,0.14288029074668884,-0.1476590782403946,-0.017694566398859024,0.0,0.0,0.0,0.0,-0.3000025448675481,0.51961377298239,0.5,-0.36158326268196106,-0.4909389019012451,0.005738524720072746,0.0032722842879593372,-0.013304749503731728,-0.0014724669745191932,0.21272844076156616,0.3879121243953705,-0.9097514748573303,0.29289016127586365,0.2621380388736725,-0.02754446305334568,0.0,0.0,0.0,0.0,-0.29999491024331576,-0.5196181808098181,0.5
0.329,TAKEOFF,abrupt,1.0,0.602655291557312,0.004156817216426134,-0.001096573774702847,0.01418336946517229,-0.012117384932935238,-0.0009040104341693223,0.2420695424079895,0.217646986246109,4.7861175537109375,-0.10093370825052261,-0.02793622761964798,-0.10958009958267212,0.0,0.0,0.0,0.0,0.6,0.0,0.5,-0.4158744812011719,0.6272807121276855,0.000854920013807714,0.000813602062407881,0.00014977013051975518,0.0055485074408352375,-0.19692263007164001,-1.3547194004058838,-1.6856753826141357,0.14288029074668884,-0.1476590782403946,-0.017694566398859024,0.0,0.0,0.0,0.0,-0.3000025448675481,0.51961377298239,0.5,-0.36158326268196106,-0.4909389019012451,0.005738524720072746,-3.328532329760492e-05,-0.007987692952156067,-0.001138431834988296,0.16260166466236115,0.4186774492263794,-0.9229478240013123,-0.010110464878380299,0.021204454824328423,0.0009437678381800652,0.0,0.0,0.0,0.0,-0.29999491024331576,-0.5196181808098181,0.5
0.349,TAKEOFF,abrupt,1.0,0.602655291557312,0.004156817216426134,-0.001096573774702847,-0.03782254084944725,0.007783149369060993,-0.0034987283870577812,0.060257986187934875,0.5671592950820923,4.820555686950684,-0.15840382874011993,0.09319952130317688,0.07595508545637131,0.0,0.0,0.0,0.0,0.6,0.0,0.5,-0.4158261716365814,0.6276506185531616,0.002053870353847742,0.00024708572891540825,0.000623780710157007,0.008299287408590317,-0.20840637385845184,-1.350535273551941,-1.6548255681991577,0.0817645713686943,0.10337445884943008,0.16706061363220215,0.0,0.0,0.0,0.0,-0.3000025448675481,0.51961377298239,0.5,-0.36158326268196106,-0.4909389019012451,0.005738524720072746,0.014934527687728405,-0.01636502705514431,-0.002410503337159753,0.23176652193069458,0.2855723798274994,-0.8447007536888123,-0.022813862189650536,0.0957413762807846,-0.002655014395713806,0.0,0.0,0.0,0.0,-0.29999491024331576,-0.5196181808098181,0.5
0.369,TAKEOFF,abrupt,1.0,0.602655291557312,0.004156817216426134,-0.001096573774702847,-0.038714490830898285,0.00979460496455431,-0.003952069208025932,0.043374527245759964,0.5657874941825867,4.838001251220703,-0.11682579666376114,-0.2520679831504822,-0.09193895757198334,0.0,0.0,0.0,0.0,0.6,0.0,0.5,-0.4158261716365814,0.6276506185531616,0.002053870353847742,9.73296700976789e-05,0.0005998112610541284,0.008272554725408554,-0.21550044417381287,-1.3503475189208984,-1.6275999546051025,-0.028051840141415596,-0.0650070384144783,-0.08726473897695541,0.0,0.0,0.0,0.0,-0.3000025448675481,0.51961377298239,0.5,-0.3610316216945648,-0.4911186397075653,0.004616181831806898,0.008526199497282505,-0.013221737928688526,-0.004635910503566265,0.24227365851402283,0.2836962640285492,-0.8259082436561584,0.04794894903898239,-0.15650422871112823,-0.0989951342344284,0.0,0.0,0.0,0.0,-0.29999491024331576,-0.5196181808098181,0.5
0.389,TAKEOFF,abrupt,1.0,0.602655291557312,0.004156817216426134,-0.001096573774702847,-0.038397662341594696,0.009955174289643764,-0.004606632981449366,0.04313025251030922,0.5588183999061584,4.849195957183838,0.19755688309669495,0.06247390806674957,0.034329887479543686,0.0,0.0,0.0,0.0,0.6,0.0,0.5,-0.4158261716365814,0.6276506185531616,0.002053870353847742,0.00023790365958120674,0.0006214708555489779,0.008203989826142788,-0.21354566514492035,-1.3510363101959229,-1.628030776977539,-0.26826104521751404,0.23605521023273468,0.09641347825527191,0.0,0.0,0.0,0.0,-0.3000025448675481,0.51961377298239,0.5,-0.3610316216945648,-0.4911186397075653,0.004616181831806898,0.014184531755745411,-0.019353607669472694,-0.0015175332082435489,0.2520986497402191,0.29442164301872253,-0.8671764135360718,-0.07044810801744461,0.12756533920764923,0.15112893283367157,0.0,0.0,0.0,0.0,-0.29999491024331576,-0.5196181808098181,0.5
0.409,TAKEOFF,abrupt,1.0,0.602655291557312,0.004156817216426134,-0.001096573774702847,-0.03808948025107384,0.010209066793322563,0.00195691897533834,0.042144279927015305,0.5451394319534302,4.8946967124938965,0.07050792127847672,-0.04688512533903122,-0.08616462349891663,0.0,0.0,0.0,0.0,0.6,0.0,0.5,-0.4158261716365814,0.6276506185531616,0.002053870353847742,0.00023790365958120674,0.0006214708555489779,0.008203989826142788,-0.21709400415420532,-1.3507212400436401,-1.6264652013778687,-0.05337771028280258,-0.29683494567871094,-0.05918017774820328,0.0,0.0,0.0,0.0,-0.3000025448675481,0.51961377298239,0.5,-0.3610316216945648,-0.4911186397075653,0.004616181831806898,0.005845445208251476,-0.010697267949581146,-0.005099469795823097,0.21825911104679108,0.2960056960582733,-0.8102663159370422,0.006099092308431864,0.18774433434009552,-0.06168149784207344,0.0,0.0,0.0,0.0,-0.29999491024331576,-0.5196181808098181,0.5
0.429,TAKEOFF,abrupt,1.0,0.593184769153595,0.008860265836119652,-0.0014739411417394876,-0.03598026558756828,0.00817815400660038,-0.0017136631067842245,0.06238575652241707,0.5259084105491638,4.905435085296631,0.08085186034440994,-0.11712703108787537,0.15337640047073364,0.0,0.0,0.0,0.0,0.6,0.0,0.5,-0.4158261716365814,0.6276506185531616,0.002053870353847742,0.00019015166617464274,0.0007818525191396475,0.007792293559759855,-0.21726472675800323,-1.3511234521865845,-1.6277765035629272,0.10843048244714737,-0.04086141288280487,-0.21299655735492706,0.0,0.0,0.0,0.0,-0.3000025448675481,0.51961377298239,0.5,-0.3610316216945648,-0.4911186397075653,0.004616181831806898,0.012398292310535908,-0.01805153861641884,-0.0014419483486562967,0.23344022035598755,0.31153544783592224,-0.8466688990592957,0.1666121929883957,-0.05621521174907684,0.16549713909626007,0.0,0.0,0.0,0.0,-0.29999491024331576,-0.5196181808098181,0.5
0.449,TAKEOFF,abrupt,1.0,0.593184769153595,0.008860265836119652,-0.0014739411417394876,-0.03670700266957283,0.008019404485821724,-0.0017614897806197405,0.06297781318426132,0.5281553864479065,4.906131744384766,-0.20240187644958496,0.090461865067482,-0.07309336960315704,0.0,0.0,0.0,0.0,0.6,0.0,0.5,-0.41576650738716125,0.6278526186943054,0.0032132603228092194,0.00012829090701416135,0.000487128971144557,0.007873893715441227,-0.21518278121948242,-1.3512494564056396,-1.6269404888153076,-0.1563315987586975,-1.0489486157894135e-05,0.005585077218711376,0.0,0.0,0.0,0.0,-0.3000025448675481,0.51961377298239,0.5,-0.36090585589408875,-0.4910445511341095,0.004396021366119385,0.003039277857169509,-0.008018475025892258,-0.004707729443907738,0.1979922652244568,0.3158595860004425,-0.791485607624054,0.148848295211792,-0.291567325592041,0.001904581906273961,0.0,0.0,0.0,0.0,-0.29999491024331576,-0.5196181808098181,0.5
0.469,TAKEOFF,abrupt,1.0,0.593184769153595,0.008860265836119652,-0.0014739411417394876,-0.0329623743891716,0.007350459229201078,0.007666592486202717,0.06765057891607285,0.4974302649497986,4.944137096405029,0.04308793693780899,0.01039164699614048,-0.06989459693431854,0.0,0.0,0.0,0.0,0.6,0.0,0.5,-0.41576650738716125,0.6278526186943054,0.0032132603228092194,0.00021701664081774652,0.0016241456614807248,0.009460745379328728,-0.21476659178733826,-1.3531129360198975,-1.6262295246124268,0.1774549037218094,-0.27191197872161865,0.15419867634773254,0.0,0.0,0.0,0.0,-0.3000025448675481,0.51961377298239,0.5,-0.36090585589408875,-0.4910445511341095,0.004396021366119385,0.005323654506355524,-0.011700667440891266,-0.0035206086467951536,0.17844252288341522,0.3723960816860199,-0.8493981957435608,-0.011527858674526215,0.14701446890830994,0.14398188889026642,0.0,0.0,0.0,0.0,-0.29999491024331576,-0.5196181808098181,0.5
0.489,TAKEOFF,abrupt,1.0,0.593184769153595,0.008860265836119652,-0.0014739411417394876,-0.03350828215479851,0.007909920066595078,0.007685611490160227,0.0700097382068634,0.4978179335594177,4.944822311401367,-0.20484337210655212,0.1948552429676056,-0.07784217596054077,0.0,0.0,0.0,0.0,0.6,0.0,0.5,-0.41576650738716125,0.6278526186943054,0.0032132603228092194,0.00021701664081774652,0.0016241456614807248,0.009460745379328728,-0.21905165910720825,-1.3546892404556274,-1.5922520160675049,0.04795309528708458,0.11021208763122559,0.09516751021146774,0.0,0.0,0.0,0.0,-0.3000025448675481,0.51961377298239,0.5,-0.36090585589408875,-0.4910445511341095,0.004396021366119385,0.0033638537861406803,-0.012135340832173824,-0.005283386446535587,0.18040767312049866,0.38692495226860046,-0.9006285071372986,-0.007399131078273058,0.1779138445854187,-0.0237441286444664,0.0,0.0,0.0,0.0,-0.29999491024331576,-0.5196181808098181,0.5
0.509,TAKEOFF,abrupt,1.0,0.593184769153595,0.008860265836119652,-0.0014739411417394876,0.020079122856259346,-0.007266562432050705,0.008026866242289543,0.0670173168182373,0.49781596660614014,4.945173263549805,-0.0008831524173729122,-0.025140900164842606,-0.09440869837999344,0.0,0.0,0.0,0.0,0.6,0.0,0.5,-0.41576650738716125,0.6278526186943054,0.0032132603228092194,-0.00036687948158942163,-0.001538930693641305,0.0039047140162438154,-0.19476580619812012,-1.3515785932540894,-1.5831334590911865,-0.10462194681167603,0.15992344915866852,-0.07546162605285645,0.0,0.0,0.0,0.0,-0.3000025448675481,0.51961377298239,0.5,-0.36090585589408875,-0.4910445511341095,0.004396021366119385,0.0036497183609753847,-0.012094229459762573,-0.00521902646869421,0.18003609776496887,0.38579124212265015,-0.9006378650665283,0.021178878843784332,0.22281016409397125,0.10632823407649994,0.0,0.0,0.0,0.0,-0.29999491024331576,-0.5196181808098181,0.5
0.529,TAKEOFF,abrupt,1.0,0.5988967418670654,0.007788167335093021,-3.258379001636058e-05,0.02085017040371895,-0.007409755606204271,0.008096623234450817,0.23040086030960083,0.09921253472566605,4.93105936050415,-0.051615841686725616,-0.01206592470407486,0.023391272872686386,0.0,0.0,0.0,0.0,0.6,0.0,0.5,-0.41576650738716125,0.6278526186943054,0.0032132603228092194,-0.00036687948158942163,-0.001538930693641305,0.0039047140162438154,-0.1941148191690445,-1.351381540298462,-1.5823451280593872,-0.05236053094267845,0.04761923849582672,-0.07982555031776428,0.0,0.0,0.0,0.0,-0.3000025448675481,0.51961377298239,0.5,-0.36090585589408875,-0.4910445511341095,0.004396021366119385,0.003773646429181099,-0.012418628670275211,-0.00545363686978817,0.17807723581790924,0.3828199505805969,-0.8994956016540527,-0.2483217567205429,0.025951897725462914,0.11026263236999512,0.0,0.0,0.0,0.0,-0.29999491024331576,-0.5196181808098181,0.5
0.549,TAKEOFF,abrupt,1.0,0.5988967418670654,0.007788167335093021,-3.258379001636058e-05,0.012920444831252098,0.0072641922160983086,0.008412661030888557,0.10875850170850754,0.1603582352399826,4.984739780426025,-0.18797548115253448,0.07872986793518066,-0.01118277758359909,0.0,0.0,0.0,0.0,0.6,0.0,0.5,-0.4157573878765106,0.6275679469108582,0.003387406002730131,0.0002003933914238587,-0.0011016314383596182,0.006320438347756863,-0.20108848810195923,-1.3550978899002075,-1.547097086906433,-0.0370929092168808,-0.07075458019971848,0.15548428893089294,0.0,0.0,0.0,0.0,-0.3000025448675481,0.51961377298239,0.5,-0.36090585589408875,-0.4910445511341095,0.004396021366119385,0.004796728491783142,-0.017324108630418777,-0.009431562386453152,0.35509470105171204,0.15611562132835388,-0.8731355667114258,0.15013659000396729,0.3811180889606476,0.23618759214878082,0.0,0.0,0.0,0.0,-0.29999491024331576,-0.5196181808098181,0.5
0.569,TAKEOFF,abrupt,1.0,0.5988967418670654,0.007788167335093021,-3.258379001636058e-05,0.03425123170018196,0.0004271451325621456,0.012704478576779366,0.10729216784238815,0.16041916608810425,4.983829498291016,-0.10108119994401932,-0.3090203106403351,-0.1663065403699875,0.0,0.0,0.0,0.0,0.6,0.0,0.5,-0.4157573878765106,0.6275679469108582,0.003387406002730131,-1.3959484022052493e-05,-0.0009074951522052288,0.006440803874284029,-0.200226828455925,-1.3517764806747437,-1.5458475351333618,0.020024646073579788,-0.06646079570055008,-0.07985781878232956,0.0,0.0,0.0,0.0,-0.3000025448675481,0.51961377298239,0.5,-0.3566443622112274,-0.49606814980506897,0.004872621037065983,0.03522667661309242,-0.038697004318237305,0.00210746843367815,0.3955003321170807,0.09371497482061386,-0.8234791159629822,0.004241446033120155,-0.28466489911079407,-0.0023214400280267,0.0,0.0,0.0,0.0,-0.29999491024331576,-0.5196181808098181,0.5
0.589,TAKEOFF,abrupt,1.0,0.5988967418670654,0.007788167335093021,-3.258379001636058e-05,0.027786850929260254,0.010850680060684681,0.00879746489226818,0.09300759434700012,0.057767268270254135,5.002364635467529,-0.08068379759788513,-0.04449860006570816,-0.2828028202056885,0.0,0.0,0.0,0.0,0.6,0.0,0.5,-0.4157573878765106,0.6275679469108582,0.003387406002730131,-1.3959484022052493e-05,-0.0009074951522052288,0.006440803874284029,-0.20054154098033905,-1.3523974418640137,-1.543571949005127,0.04519394040107727,-0.21601399779319763,0.029152626171708107,0.0,0.0,0.0,0.0,-0.3000025448675481,0.51961377298239,0.5,-0.3566443622112274,-0.49606814980506897,0.004872621037065983,0.04471723362803459,-0.04519204422831535,0.003357399022206664,0.3978523015975952,0.0890032947063446,-0.76897132396698,-0.10204188525676727,-0.10856682062149048,-0.2909184396266937,0.0,0.0,0.0,0.0,-0.29999491024331576,-0.5196181808098181,0.5
0.609,TAKEOFF,abrupt,1.0,0.5988967418670654,0.007788167335093021,-3.258379001636058e-05,0.03743888437747955,0.004819768015295267,0.015031077899038792,0.09480351209640503,0.058667078614234924,5.000596523284912,-0.03433867171406746,0.29811760783195496,-0.11957535147666931,0.0,0.0,0.0,0.0,0.6,0.0,0.5,-0.4157573878765106,0.6275679469108582,0.003387406002730131,-0.0002977695839945227,-0.0011627390049397945,0.006751213688403368,-0.2015676647424698,-1.3525558710098267,-1.5426629781723022,0.03458325192332268,-0.18563273549079895,0.05222760885953903,0.0,0.0,0.0,0.0,-0.3000025448675481,0.51961377298239,0.5,-0.3566443622112274,-0.49606814980506897,0.004872621037065983,0.046712812036275864,-0.04628288373351097,0.002256962703540921,0.38252559304237366,0.11112035810947418,-0.7306697964668274,0.19083687663078308,-0.11884946376085281,0.04863925278186798,0.0,0.0,0.0,0.0,-0.29999491024331576,-0.5196181808098181,0.5
0.629,TAKEOFF,abrupt,1.0,0.6034244298934937,0.010263778269290924,0.001808221684768796,0.039200879633426666,0.0016866481164470315,0.018822113052010536,0.1540583074092865,-0.006363618187606335,4.95750617980957,0.2818051278591156,-0.3145083487033844,0.09556402266025543,0.0,0.0,0.0,0.0,0.6,0.0,0.5,-0.4157573878765106,0.6275679469108582,0.003387406002730131,-0.00035071372985839844,-0.0014606653712689877,0.006693372968584299,-0.20055773854255676,-1.3476723432540894,-1.5411972999572754,0.21787728369235992,-0.09758587926626205,-0.09930654615163803,0.0,0.0,0.0,0.0,-0.3000025448675481,0.51961377298239,0.5,-0.3566443622112274,-0.49606814980506897,0.004872621037065983,0.010305413044989109,0.003807979403063655,-0.001861176802776754,0.07684817165136337,0.306820809841156,-0.6812761425971985,-0.04325151816010475,0.005705965217202902,-0.1118510290980339,0.0,0.0,0.0,0.0,-0.29999491024331576,-0.5196181808098181,0.5
0.649,TAKEOFF,abrupt,1.0,0.6034244298934937,0.010263778269290924,0.001808221684768796,0.040500883013010025,0.0017170406645163894,0.018680892884731293,0.1793488711118698,-0.009394858032464981,4.926889419555664,-0.19821126759052277,0.1237461045384407,-0.19158081710338593,0.0,0.0,0.0,0.0,0.6,0.0,0.5,-0.41577184200286865,0.6274511814117432,0.004042512271553278,-0.00035071372985839844,-0.0014606653712689877,0.006693372968584299,-0.2002623975276947,-1.3511065244674683,-1.540091633796692,0.042525917291641235,-0.12745970487594604,-0.11284003406763077,0.0,0.0,0.0,0.0,-0.3000025448675481,0.51961377298239,0.5,-0.3566443622112274,-0.49606814980506897,0.004872621037065983,0.01853889785706997,-0.0017157458933070302,-0.0008724191575311124,0.0765647143125534,0.30643418431282043,-0.6799704432487488,0.07316966354846954,0.26406142115592957,0.17150478065013885,0.0,0.0,0.0,0.0,-0.29999491024331576,-0.5196181808098181,0.5
0.669,TAKEOFF,abrupt,1.0,0.6034244298934937,0.010263778269290924,0.001808221684768796,0.01901370845735073,-0.03340296447277069,-0.000553854217287153,0.4100152850151062,0.21360601484775543,4.9001970291137695,0.336809903383255,-0.11102467030286789,-0.029675353318452835,0.0,0.0,0.0,0.0,0.6,0.0,0.5,-0.41577184200286865,0.6274511814117432,0.004042512271553278,-0.0004044263914693147,-0.001522925915196538,0.006801833398640156,-0.20256084203720093,-1.3471931219100952,-1.5123039484024048,-0.07924393564462662,-0.13706427812576294,0.04118632897734642,0.0,0.0,0.0,0.0,-0.3000025448675481,0.51961377298239,0.5,-0.3588744103908539,-0.49118751287460327,0.004283805377781391,-0.0026707949582487345,0.021468516439199448,-0.0061495862901210785,-0.08886656910181046,0.4668709933757782,-0.7000929713249207,-0.1391604244709015,0.31853801012039185,-0.015650305896997452,0.0,0.0,0.0,0.0,-0.29999491024331576,-0.5196181808098181,0.5
0.689,TAKEOFF,abrupt,1.0,0.6034244298934937,0.010263778269290924,0.001808221684768796,0.01486391294747591,-0.02021414414048195,0.0007275111856870353,0.3095223009586334,0.21508517861366272,4.938220977783203,-0.052259478718042374,0.33067554235458374,0.3261742889881134,0.0,0.0,0.0,0.0,0.6,0.0,0.5,-0.41577184200286865,0.6274511814117432,0.004042512271553278,-0.0008121877326630056,-0.0012361551634967327,0.007133000530302525,-0.20278872549533844,-1.3465129137039185,-1.486969232559204,-0.05772150307893753,-0.11311526596546173,0.28413471579551697,0.0,0.0,0.0,0.0,-0.3000025448675481,0.51961377298239,0.5,-0.3588744103908539,-0.49118751287460327,0.004283805377781391,-0.002984253689646721,0.022064609453082085,-0.006330606061965227,-0.09054553508758545,0.4649178683757782,-0.7009904384613037,-0.02308337390422821,-0.0981774777173996,-0.21464593708515167,0.0,0.0,0.0,0.0,-0.29999491024331576,-0.5196181808098181,0.5
0.709,TAKEOFF,abrupt,1.0,0.6034244298934937,0.010263778269290924,0.001808221684768796,0.015265053138136864,-0.020733864977955818,0.001073660678230226,0.31167134642601013,0.21500785648822784,4.938405990600586,-0.1499256044626236,0.0075935740023851395,0.25711408257484436,0.0,0.0,0.0,0.0,0.6,0.0,0.5,-0.41577184200286865,0.6274511814117432,0.004042512271553278,-0.0009041728917509317,-0.0012409168994054198,0.006976057309657335,-0.20234476029872894,-1.3447266817092896,-1.4574488401412964,-0.051951754838228226,0.32537803053855896,0.14839787781238556,0.0,0.0,0.0,0.0,-0.3000025448675481,0.51961377298239,0.5,-0.3588744103908539,-0.49118751287460327,0.004283805377781391,-0.008690203540027142,0.013317412696778774,-0.004525410011410713,-0.02078610099852085,0.503828227519989,-0.7548908591270447,-0.037877604365348816,0.21402797102928162,-0.13532544672489166,0.0,0.0,0.0,0.0,-0.29999491024331576,-0.5196181808098181,0.5
0.73,TAKEOFF,abrupt,1.0,0.5988145470619202,0.005708687007427216,-0.00028716676752083004,0.015739580616354942,-0.020881790667772293,0.001189531642012298,0.3105243146419525,0.21372158825397491,4.940628528594971,0.1710004210472107,0.046069204807281494,-0.04746793583035469,0.0,0.0,0.0,0.0,0.6,0.0,0.5,-0.41577184200286865,0.6274511814117432,0.004042512271553278,-0.0009004735038615763,-0.0013941619545221329,0.007026253268122673,-0.1995442807674408,-1.346269130706787,-1.4332090616226196,-0.061013106256723404,0.04514489322900772,-0.026338953524827957,0.0,0.0,0.0,0.0,-0.3000025448675481,0.51961377298239,0.5,-0.3588744103908539,-0.49118751287460327,0.004283805377781391,-0.009319384582340717,0.011748944409191608,-0.0058228266425430775,-0.004014776088297367,0.5048210024833679,-0.8048100471496582,0.24202874302864075,-0.009562295861542225,0.2072768211364746,0.0,0.0,0.0,0.0,-0.29999491024331576,-0.5196181808098181,0.5
0.749,TAKEOFF,abrupt,1.0,0.5988145470619202,0.005708687007427216,-0.00028716676752083004,0.016039669513702393,-0.021296005696058273,0.001364617608487606,0.31216180324554443,0.21209995448589325,4.94136905670166,-0.04896887019276619,0.21042858064174652,0.29459789395332336,0.0,0.0,0.0,0.0,0.6,0.0,0.5,-0.4157077968120575,0.6277028918266296,0.003223128616809845,-0.0003691123565658927,-0.001244539162144065,-0.0014428423019126058,-0.19682049751281738,-1.3525021076202393,-1.4561351537704468,0.22986577451229095,-0.19419771432876587,0.055393315851688385,0.0,0.0,0.0,0.0,-0.3000025448675481,0.51961377298239,0.5,-0.3588744103908539,-0.49118751287460327,0.004283805377781391,-0.015982940793037415,0.017012856900691986,-0.008621524088084698,-0.037579383701086044,0.5516059994697571,-0.8633209466934204,-0.01390764955431223,0.09317423403263092,0.2280762791633606,0.0,0.0,0.0,0.0,-0.29999491024331576,-0.5196181808098181,0.5
0.77,TAKEOFF,abrupt,1.0,0.5988145470619202,0.005708687007427216,-0.00028716676752083004,0.02142297849059105,-0.004841406363993883,0.0014498202363029122,0.18012318015098572,0.16240087151527405,4.9747419357299805,-0.13056552410125732,0.29158732295036316,-0.15935160219669342,0.0,0.0,0.0,0.0,0.6,0.0,0.5,-0.4157077968120575,0.6277028918266296,0.003223128616809845,-0.0003691123565658927,-0.001244539162144065,-0.0014428423019126058,-0.1840243935585022,-1.3502486944198608,-1.4673081636428833,0.05198892578482628,0.11062700301408768,0.013993450440466404,0.0,0.0,0.0,0.0,-0.3000025448675481,0.51961377298239,0.5,-0.36216801404953003,-0.49091821908950806,0.0027200363110750914,-0.017320048063993454,0.016394203528761864,-0.01142807025462389,0.045506976544857025,0.4344747066497803,-0.827702522277832,-0.19799311459064484,-0.16633643209934235,0.11101608723402023,0.0,0.0,0.0,0.0,-0.29999491024331576,-0.5196181808098181,0.5
0.789,TAKEOFF,abrupt,1.0,0.5988145470619202,0.005708687007427216,-0.00028716676752083004,0.00399007136002183,-0.02083016186952591,-0.002177685732021928,0.1788492202758789,0.16059617698192596,4.974026203155518,0.06133688613772392,-0.1309042125940323,0.06489436328411102,0.0,0.0,0.0,0.0,0.6,0.0,0.5,-0.4157077968120575,0.6277028918266296,0.003223128616809845,-0.0003933194384444505,-0.0023948948364704847,-0.005442382767796516,-0.1785638928413391,-1.3497356176376343,-1.4928741455078125,0.09011174738407135,0.0003235525800846517,-0.15298739075660706,0.0,0.0,0.0,0.0,-0.3000025448675481,0.51961377298239,0.5,-0.36216801404953003,-0.49091821908950806,0.0027200363110750914,0.0035877185873687267,0.0027927737683057785,0.005797571036964655,0.08520806580781937,0.3851211369037628,-0.7948439121246338,0.05642274022102356,0.22899307310581207,0.05781402811408043,0.0,0.0,0.0,0.0,-0.29999491024331576,-0.5196181808098181,0.5
0.81,TAKEOFF,abrupt,1.0,0.5988145470619202,0.005708687007427216,-0.00028716676752083004,0.00433259317651391,-0.02132871188223362,-0.002394996117800474,0.29313451051712036,0.3101477324962616,4.934514045715332,-0.12463744729757309,0.032679613679647446,-0.03766622766852379,0.0,0.0,0.0,0.0,0.6,0.0,0.5,-0.4157077968120575,0.6277028918266296,0.003223128616809845,-0.0006375009543262422,-0.0031022019684314728,-0.007319633848965168,-0.17685091495513916,-1.3508061170578003,-1.503043532371521,0.08383454382419586,0.14057259261608124,-0.0797991082072258,0.0,0.0,0.0,0.0,-0.3000025448675481,0.51961377298239,0.5,-0.36216801404953003,-0.49091821908950806,0.0027200363110750914,0.003453729208558798,0.002877456834539771,0.005678187590092421,0.08042998611927032,0.398112028837204,-0.8434526920318604,0.11705812066793442,0.03581645339727402,-0.07138987630605698,0.0,0.0,0.0,0.0,-0.29999491024331576,-0.5196181808098181,0.5
0.83,TAKEOFF,abrupt,1.0,0.5969352722167969,0.004135203547775745,-0.0007753166137263179,0.0004399013123475015,-0.022714419290423393,-0.0005518340039998293,0.2904204726219177,0.3090575933456421,4.932537078857422,-0.16173137724399567,0.14890408515930176,-0.12601251900196075,0.0,0.0,0.0,0.0,0.6,0.0,0.5,-0.4157077968120575,0.6277028918266296,0.003223128616809845,-0.0012753105256706476,-0.0028547514230012894,-0.008735882118344307,-0.1793624758720398,-1.3519734144210815,-1.509871244430542,0.25427350401878357,-0.042716968804597855,-0.0680115818977356,0.0,0.0,0.0,0.0,-0.3000025448675481,0.51961377298239,0.5,-0.36216801404953003,-0.49091821908950806,0.0027200363110750914,-0.011070795357227325,0.013478993438184261,-0.0016440859762951732,0.0014208389911800623,0.5035532712936401,-0.8634696006774902,0.23956193029880524,0.01384031679481268,0.07665068656206131,0.0,0.0,0.0,0.0,-0.29999491024331576,-0.5196181808098181,0.5
0.849,TAKEOFF,abrupt,1.0,0.5969352722167969,0.004135203547775745,-0.0007753166137263179,0.000499233603477478,-0.022861551493406296,-0.000649614492431283,0.29298141598701477,0.3417661190032959,4.899231910705566,0.016128893941640854,0.09687665849924088,0.1323961615562439,0.0,0.0,0.0,0.0,0.6,0.0,0.5,-0.41588732600212097,0.6275419592857361,0.0020499099045991898,-0.0012753105256706476,-0.0028547514230012894,-0.008735882118344307,-0.18554061651229858,-1.3508316278457642,-1.487442970275879,0.07357228547334671,-0.28678420186042786,0.025335773825645447,0.0,0.0,0.0,0.0,-0.3000025448675481,0.51961377298239,0.5,-0.36216801404953003,-0.49091821908950806,0.0027200363110750914,-0.011496474035084248,0.013770189136266708,-0.0015071858651936054,0.03313301503658295,0.5061324834823608,-0.9038618206977844,0.05345746874809265,-0.0031845024786889553,-0.1367500126361847,0.0,0.0,0.0,0.0,-0.29999491024331576,-0.5196181808098181,0.5
0.869,TAKEOFF,abrupt,1.0,0.5969352722167969,0.004135203547775745,-0.0007753166137263179,-0.005742431618273258,-0.005717537831515074,-0.005080593284219503,0.14339539408683777,0.39213964343070984,4.9604573249816895,-0.06778772920370102,0.030019724741578102,-0.06479150056838989,0.0,0.0,0.0,0.0,0.6,0.0,0.5,-0.41588732600212097,0.6275419592857361,0.0020499099045991898,-0.0010802570031955838,-0.001975420629605651,-0.007070113904774189,-0.18554754555225372,-1.3507640361785889,-1.4970110654830933,0.024536073207855225,-0.04068658500909805,0.07290481775999069,0.0,0.0,0.0,0.0,-0.3000025448675481,0.51961377298239,0.5,-0.36197030544281006,-0.4902557134628296,0.0040079401805996895,-0.014345521107316017,0.013575713150203228,-0.00342802656814456,0.006307732779532671,0.5223798751831055,-0.9185209274291992,-0.22599968314170837,0.2580372095108032,-0.06240997463464737,0.0,0.0,0.0,0.0,-0.29999491024331576,-0.5196181808098181,0.5
0.889,TAKEOFF,abrupt,1.0,0.5969352722167969,0.004135203547775745,-0.0007753166137263179,-0.005835567135363817,-0.005643929820507765,-0.005155052989721298,0.1515192836523056,0.3808381259441376,4.926360607147217,-0.08551815152168274,0.14773592352867126,-0.06856674700975418,0.0,0.0,0.0,0.0,0.6,0.0,0.5,-0.41588732600212097,0.6275419592857361,0.0020499099045991898,-0.0010802570031955838,-0.001975420629605651,-0.007070113904774189,-0.18675531446933746,-1.3510664701461792,-1.4973633289337158,-0.20601597428321838,0.1471165418624878,-0.043730467557907104,0.0,0.0,0.0,0.0,-0.3000025448675481,0.51961377298239,0.5,-0.36197030544281006,-0.4902557134628296,0.0040079401805996895,-0.015221892856061459,0.013971936888992786,-0.0033757423516362906,0.04370957240462303,0.5178842544555664,-0.9584876298904419,0.07255464792251587,0.0845274031162262,0.03566734492778778,0.0,0.0,0.0,0.0,-0.29999491024331576,-0.5196181808098181,0.5
0.91,TAKEOFF,abrupt,1.0,0.5969352722167969,0.004135203547775745,-0.0007753166137263179,-0.005835567135363817,-0.005643929820507765,-0.005155052989721298,0.1534823775291443,0.37984851002693176,4.924812316894531,-0.08785965293645859,0.10358677059412003,-0.18442495167255402,0.0,0.0,0.0,0.0,0.6,0.0,0.5,-0.41588732600212097,0.6275419592857361,0.0020499099045991898,-0.0014055315405130386,-0.0017522221896797419,-0.0069773439317941666,-0.18675531446933746,-1.3510664701461792,-1.4973633289337158,-0.20601597428321838,0.1471165418624878,-0.043730467557907104,0.0,0.0,0.0,0.0,-0.3000025448675481,0.51961377298239,0.5,-0.36197030544281006,-0.4902557134628296,0.0040079401805996895,-0.015246652066707611,0.009387028403580189,-0.009318365715444088,0.04370957240462303,0.5178842544555664,-0.9584876298904419,0.07255464792251587,0.0845274031162262,0.03566734492778778,0.0,0.0,0.0,0.0,-0.29999491024331576,-0.5196181808098181,0.5
0.929,TAKEOFF,abrupt,1.0,0.5944545865058899,0.005830619018524885,-0.0022051124833524227,-0.0046166484244167805,-0.005897938273847103,-0.006881674285978079,0.1576818823814392,0.36864399909973145,4.8930768966674805,0.06627395749092102,-0.10816162079572678,-0.021623587235808372,0.0,0.0,0.0,0.0,0.6,0.0,0.5,-0.41588732600212097,0.6275419592857361,0.0020499099045991898,-0.0014398143393918872,8.040454122237861e-05,-0.002080458216369152,-0.19302847981452942,-1.3514901399612427,-1.5070463418960571,-0.0005007647559978068,-0.35344061255455017,0.03890576958656311,0.0,0.0,0.0,0.0,-0.3000025448675481,0.51961377298239,0.5,-0.36197030544281006,-0.4902557134628296,0.0040079401805996895,0.008148791268467903,-0.007732189726084471,0.0028063016943633556,0.1769685298204422,0.3283054530620575,-0.9097614884376526,-0.001974091399461031,0.08691992610692978,0.016205020248889923,0.0,0.0,0.0,0.0,-0.29999491024331576,-0.5196181808098181,0.5
0.949,TAKEOFF,abrupt,1.0,0.5944545865058899,0.005830619018524885,-0.0022051124833524227,-0.0034678257070481777,-0.005439894273877144,-0.007124227471649647,0.15721525251865387,0.37161171436309814,4.892073631286621,0.05898293852806091,0.03299786522984505,0.009650858119130135,0.0,0.0,0.0,0.0,0.6,0.0,0.5,-0.41605737805366516,0.6274034976959229,0.000961128796916455,-0.0018088221549987793,-0.0012401639251038432,-0.00648111617192626,-0.1842983216047287,-1.3533573150634766,-1.5499850511550903,0.03350239247083664,-0.11059460788965225,-0.017911292612552643,0.0,0.0,0.0,0.0,-0.3000025448675481,0.51961377298239,0.5,-0.36197030544281006,-0.4902557134628296,0.0040079401805996895,0.020372901111841202,-0.015972506254911423,0.005139332730323076,0.22001565992832184,0.24248440563678741,-0.8968843817710876,0.04154347628355026,-0.0117052486166358,-0.17028804123401642,0.0,0.0,0.0,0.0,-0.29999491024331576,-0.5196181808098181,0.5
0.969,TAKEOFF,abrupt,1.0,0.5944545865058899,0.005830619018524885,-0.0022051124833524227,-0.0036918495316058397,-0.005360049661248922,-0.006818808149546385,0.15443487465381622,0.35940635204315186,4.8636393547058105,-0.33120471239089966,0.11178138852119446,-0.21716834604740143,0.0,0.0,0.0,0.0,0.6,0.0,0.5,-0.41605737805366516,0.6274034976959229,0.000961128796916455,-0.0021053669042885303,-0.002488615456968546,-0.010157943703234196,-0.1827898621559143,-1.3527859449386597,-1.54806649684906,-0.07802021503448486,0.15749424695968628,-0.052493177354335785,0.0,0.0,0.0,0.0,-0.3000025448675481,0.51961377298239,0.5,-0.36048054695129395,-0.4914385974407196,0.004845326766371727,0.003968807402998209,-0.0018330658785998821,0.000813229416962713,0.12566295266151428,0.3639095425605774,-0.9098538160324097,-0.016542674973607063,-0.119321309030056,-0.07509036362171173,0.0,0.0,0.0,0.0,-0.29999491024331576,-0.5196181808098181,0.5
0.99,TAKEOFF,abrupt,1.0,0.5944545865058899,0.005830619018524885,-0.0022051124833524227,-0.006840224843472242,0.006168233696371317,0.0002826775307767093,0.05307703837752342,0.3740101754665375,4.915505886077881,-0.1432192325592041,0.22792892158031464,0.1157340258359909,0.0,0.0,0.0,0.0,0.6,0.0,0.5,-0.41605737805366516,0.6274034976959229,0.000961128796916455,-0.0015202410286292434,-0.0031780607532709837,-0.012707586400210857,-0.17939072847366333,-1.3626431226730347,-1.5821012258529663,-0.01359803881496191,0.10692643374204636,0.04032782465219498,0.0,0.0,0.0,0.0,-0.3000025448675481,0.51961377298239,0.5,-0.36048054695129395,-0.4914385974407196,0.004845326766371727,0.0009746597497723997,0.0019173320615664124,0.00015993240231182426,0.11847590655088425,0.39219775795936584,-0.9592089653015137,0.1424390822649002,-0.14134250581264496,0.19218020141124725,0.0,0.0,0.0,0.0,-0.29999491024331576,-0.5196181808098181,0.5
1.01,TAKEOFF,abrupt,1.0,0.5944545865058899,0.005830619018524885,-0.0022051124833524227,-0.007081231568008661,0.0063592661172151566,0.00036192359402775764,0.05229848995804787,0.37093666195869446,4.916873455047607,0.17728054523468018,-0.15918070077896118,-0.034917984157800674,0.0,0.0,0.0,0.0,0.6,0.0,0.5,-0.41605737805366516,0.6274034976959229,0.000961128796916455,-0.000874843739438802,-0.0036613119300454855,-0.014030557125806808,-0.18056662380695343,-1.3672047853469849,-1.6115766763687134,0.21292759478092194,-0.2801113724708557,-0.1037391945719719,0.0,0.0,0.0,0.0,-0.3000025448675481,0.51961377298239,0.5,-0.36048054695129395,-0.4914385974407196,0.004845326766371727,-0.0009390797349624336,-0.005071347579360008,-0.0013889294350519776,0.14933329820632935,0.3265906572341919,-0.9115493297576904,0.01574758253991604,0.03275400772690773,0.010984811000525951,0.0,0.0,0.0,0.0,-0.29999491024331576,-0.5196181808098181,0.5
1.029,TAKEOFF,abrupt,1.0,0.5933919548988342,0.007567586377263069,-0.0019385714549571276,-0.003749293042346835,0.00428286287933588,-0.00607597641646862,0.054945241659879684,0.37244802713394165,4.917501926422119,-0.04957062005996704,0.03270772099494934,0.14419832825660706,0.0,0.0,0.0,0.0,0.6,0.0,0.5,-0.41605737805366516,0.6274034976959229,0.000961128796916455,-0.000874843739438802,-0.0036613119300454855,-0.014030557125806808,-0.18020129203796387,-1.3648650646209717,-1.6444933414459229,0.059480734169483185,0.11550074815750122,-0.0006456613773480058,0.0,0.0,0.0,0.0,-0.3000025448675481,0.51961377298239,0.5,-0.36048054695129395,-0.4914385974407196,0.004845326766371727,0.018240848556160927,-0.013153494335711002,0.0007217041566036642,0.2118576169013977,0.24843640625476837,-0.8605313301086426,-0.03184671700000763,0.10895944386720657,0.007575434632599354,0.0,0.0,0.0,0.0,-0.29999491024331576,-0.5196181808098181,0.5
1.05,TAKEOFF,abrupt,1.0,0.5933919548988342,0.007567586377263069,-0.0019385714549571276,-0.0032459187787026167,0.0031429596710950136,-0.008706086315214634,0.07490871846675873,0.34703367948532104,4.883457183837891,0.033176034688949585,0.0747697576880455,0.19692298769950867,0.0,0.0,0.0,0.0,0.6,0.0,0.5,-0.4160378873348236,0.6274319291114807,8.650935342302546e-05,-0.0006172267603687942,-0.00039703003130853176,-0.006935636978596449,-0.18020129203796387,-1.3648650646209717,-1.6444933414459229,0.059480734169483185,0.11550074815750122,-0.0006456613773480058,0.0,0.0,0.0,0.0,-0.3000025448675481,0.51961377298239,0.5,-0.36048054695129395,-0.4914385974407196,0.004845326766371727,0.018812458962202072,-0.013375384733080864,0.0006124779465608299,0.23037898540496826,0.28773751854896545,-0.9022650718688965,-0.04905768111348152,0.18998168408870697,0.08746977895498276,0.0,0.0,0.0,0.0,-0.29999491024331576,-0.5196181808098181,0.5
1.069,TAKEOFF,abrupt,1.0,0.5933919548988342,0.007567586377263069,-0.0019385714549571276,0.008508318103849888,-0.015631776303052902,0.005639613140374422,0.2252468764781952,0.23328769207000732,4.838774681091309,-0.27672523260116577,0.043281808495521545,-0.0901937410235405,0.0,0.0,0.0,0.0,0.6,0.0,0.5,-0.4160378873348236,0.6274319291114807,8.650935342302546e-05,-0.0007227244786918163,0.0014664228074252605,-0.001046965946443379,-0.20077574253082275,-1.3652160167694092,-1.6420133113861084,-0.18635588884353638,-0.0393618568778038,0.08331392705440521,0.0,0.0,0.0,0.0,-0.3000025448675481,0.51961377298239,0.5,-0.3605119287967682,-0.49114012718200684,0.0045560989528894424,-0.0033362016547471285,0.0019797757267951965,-0.0015000638086348772,0.11726276576519012,0.42917361855506897,-0.955501139163971,-0.13091883063316345,-0.08245617151260376,-0.057972680777311325,0.0,0.0,0.0,0.0,-0.29999491024331576,-0.5196181808098181,0.5
1.089,TAKEOFF,abrupt,1.0,0.5933919548988342,0.007567586377263069,-0.0019385714549571276,0.009663066826760769,-0.018228845670819283,0.006330427248030901,0.2566847503185272,0.23349259793758392,4.784534931182861,-0.02773452363908291,0.0442531444132328,-0.20754897594451904,0.0,0.0,0.0,0.0,0.6,0.0,0.5,-0.4160378873348236,0.6274319291114807,8.650935342302546e-05,-0.0007227244786918163,0.0014664228074252605,-0.001046965946443379,-0.21411320567131042,-1.3679426908493042,-1.6367088556289673,0.3037239611148834,-0.07237650454044342,0.3623097538948059,0.0,0.0,0.0,0.0,-0.3000025448675481,0.51961377298239,0.5,-0.3605119287967682,-0.49114012718200684,0.0045560989528894424,-0.003959653899073601,-0.0002716222661547363,-0.0035209034103900194,0.12930411100387573,0.42554330825805664,-0.9919774532318115,-0.15248417854309082,-0.056647803634405136,-0.13767258822917938,0.0,0.0,0.0,0.0,-0.29999491024331576,-0.5196181808098181,0.5
1.109,TAKEOFF,abrupt,1.0,0.5933919548988342,0.007567586377263069,-0.0019385714549571276,0.009663066826760769,-0.018228845670819283,0.006330427248030901,0.2566847503185272,0.23349259793758392,4.784534931182861,-0.02773452363908291,0.0442531444132328,-0.20754897594451904,0.0,0.0,0.0,0.0,0.6,0.0,0.5,-0.4160378873348236,0.6274319291114807,8.650935342302546e-05,-0.000951770634856075,0.000839473563246429,-0.0032880203798413277,-0.21411320567131042,-1.3679426908493042,-1.6367088556289673,0.3037239611148834,-0.07237650454044342,0.3623097538948059,0.0,0.0,0.0,0.0,-0.3000025448675481,0.51961377298239,0.5,-0.3605119287967682,-0.49114012718200684,0.0045560989528894424,-0.007765748538076878,0.003558255499228835,-0.0059204609133303165,0.12930411100387573,0.42554330825805664,-0.9919774532318115,-0.15248417854309082,-0.056647803634405136,-0.13767258822917938,0.0,0.0,0.0,0.0,-0.29999491024331576,-0.5196181808098181,0.5
1.13,TAKEOFF,abrupt,1.0,0.5949754118919373,0.006699752528220415,-0.0005546688917092979,0.006048758514225483,-0.012680541723966599,0.0031763436272740364,0.1948886215686798,0.25743362307548523,4.802735805511475,0.050121065229177475,-0.02447398751974106,-0.04797728732228279,0.0,0.0,0.0,0.0,0.6,0.0,0.5,-0.4160378873348236,0.6274319291114807,8.650935342302546e-05,-0.0006510030361823738,0.0025439367163926363,0.003297424176707864,-0.21255306899547577,-1.3647736310958862,-1.6352674961090088,-0.02451002039015293,0.27718985080718994,-0.14385707676410675,0.0,0.0,0.0,0.0,-0.3000025448675481,0.51961377298239,0.5,-0.3605119287967682,-0.49114012718200684,0.0045560989528894424,0.0018672574078664184,-0.0026671183295547962,-0.004107754677534103,0.10382278263568878,0.45712894201278687,-1.0340440273284912,0.31784874200820923,0.17048752307891846,0.05828104168176651,0.0,0.0,0.0,0.0,-0.29999491024331576,-0.5196181808098181,0.5
1.149,TAKEOFF,abrupt,1.0,0.5949754118919373,0.006699752528220415,-0.0005546688917092979,0.007050515618175268,-0.006941604427993298,0.002045645611360669,0.15993572771549225,0.27391913533210754,4.8436198234558105,-0.1330612152814865,0.12902061641216278,0.19185321033000946,0.0,0.0,0.0,0.0,0.6,0.0,0.5,-0.41606131196022034,0.6275350451469421,0.0006149030523374677,-0.0012115677818655968,0.0011922571575269103,0.0004556494823191315,-0.20996278524398804,-1.3672455549240112,-1.6688618659973145,-0.045814190059900284,-0.3341607451438904,0.04522986337542534,0.0,0.0,0.0,0.0,-0.3000025448675481,0.51961377298239,0.5,-0.3605119287967682,-0.49114012718200684,0.0045560989528894424,0.0015311342431232333,-0.00279060285538435,-0.0037201750092208385,0.1430203914642334,0.37835660576820374,-0.9760955572128296,0.06599186360836029,0.01912863738834858,-0.13881507515907288,0.0,0.0,0.0,0.0,-0.29999491024331576,-0.5196181808098181,0.5
1.169,TAKEOFF,abrupt,1.0,0.5949754118919373,0.006699752528220415,-0.0005546688917092979,0.0010291148209944367,0.00016934053564909846,0.002595288446173072,0.09820689260959625,0.31266820430755615,4.889463424682617,-0.0908343642950058,-0.13823486864566803,-0.15099817514419556,0.0,0.0,0.0,0.0,0.6,0.0,0.5,-0.41606131196022034,0.6275350451469421,0.0006149030523374677,-0.0011020578676834702,-8.358229024452157e-06,-0.0018614332657307386,-0.2103675752878189,-1.3635690212249756,-1.6666548252105713,0.2356540560722351,0.04969697818160057,-0.14659838378429413,0.0,0.0,0.0,0.0,-0.3000025448675481,0.51961377298239,0.5,-0.3603458106517792,-0.4905415177345276,0.0036140382289886475,0.00251218443736434,0.002094648312777281,-0.0025499716866761446,0.10852372646331787,0.3680298328399658,-0.9116039276123047,-0.11633989214897156,0.22677387297153473,-0.0010298846755176783,0.0,0.0,0.0,0.0,-0.29999491024331576,-0.5196181808098181,0.5
1.189,TAKEOFF,abrupt,1.0,0.5949754118919373,0.006699752528220415,-0.0005546688917092979,-0.010367912240326405,-0.007894071750342846,-0.0006578208995051682,0.0986289456486702,0.31142300367355347,4.888059139251709,-0.05188976600766182,-0.18505068123340607,-0.3752767741680145,0.0,0.0,0.0,0.0,0.6,0.0,0.5,-0.41606131196022034,0.6275350451469421,0.0006149030523374677,-0.0009530082461424172,1.3841477084497456e-05,-0.0017423840472474694,-0.20760275423526764,-1.3614791631698608,-1.6667532920837402,-0.015060057863593102,-0.0325084887444973,0.019107144325971603,0.0,0.0,0.0,0.0,-0.3000025448675481,0.51961377298239,0.5,-0.3603458106517792,-0.4905415177345276,0.0036140382289886475,-0.007275205105543137,0.012606672011315823,-0.004413241520524025,0.0709991529583931,0.47034627199172974,-0.9648197889328003,-0.11278999596834183,0.21987400949001312,0.01363411359488964,0.0,0.0,0.0,0.0,-0.29999491024331576,-0.5196181808098181,0.5
1.21,TAKEOFF,abrupt,1.0,0.5949754118919373,0.006699752528220415,-0.0005546688917092979,-0.015153861604630947,-0.0013236954109743237,0.0015209454577416182,0.0990137830376625,0.4292713403701782,4.905570983886719,-0.12871569395065308,0.0879497081041336,-0.2121237963438034,0.0,0.0,0.0,0.0,0.6,0.0,0.5,-0.41606131196022034,0.6275350451469421,0.0006149030523374677,-0.0009530082461424172,1.3841477084497456e-05,-0.0017423840472474694,-0.22511352598667145,-1.3654354810714722,-1.6355262994766235,0.1481374204158783,0.06534011662006378,0.16377629339694977,0.0,0.0,0.0,0.0,-0.3000025448675481,0.51961377298239,0.5,-0.3603458106517792,-0.4905415177345276,0.0036140382289886475,-0.010953514836728573,0.006900625303387642,-0.0022950393613427877,0.06874151527881622,0.4676489531993866,-0.963402509689331,-0.23475204408168793,0.3166787922382355,0.026250001043081284,0.0,0.0,0.0,0.0,-0.29999491024331576,-0.5196181808098181,0.5
1.233,TAKEOFF,abrupt,1.0,0.5940895676612854,0.0079112583771348,-0.0005913914064876735,-0.015632031485438347,-0.0011424727272242308,0.0016003851778805256,0.09852153807878494,0.4300829768180847,4.904948711395264,-0.10785093158483505,-0.11340173333883286,0.2520883083343506,0.0,0.0,0.0,0.0,0.6,0.0,0.5,-0.41606131196022034,0.6275350451469421,0.0006149030523374677,-0.00014337633911054581,0.0021201693452894688,0.006444377359002829,-0.21198108792304993,-1.365939736366272,-1.6633168458938599,-0.13041581213474274,-0.1809362769126892,-0.13041788339614868,0.0,0.0,0.0,0.0,-0.3000025448675481,0.51961377298239,0.5,-0.3603458106517792,-0.4905415177345276,0.0036140382289886475,-0.01120074838399887,0.0067430767230689526,-0.0019608987495303154,0.0674566775560379,0.4666721224784851,-0.9641717672348022,-0.10170944035053253,-0.19427073001861572,0.1581954061985016,0.0,0.0,0.0,0.0,-0.29999491024331576,-0.5196181808098181,0.5
1.249,TAKEOFF,abrupt,1.0,0.5940895676612854,0.0079112583771348,-0.0005913914064876735,0.00818908866494894,-0.02128578908741474,0.0007174020283855498,0.21471156179904938,0.17880800366401672,4.893031120300293,-0.07473248988389969,-0.07437977939844131,-0.09147382527589798,0.0,0.0,0.0,0.0,0.6,0.0,0.5,-0.4160032570362091,0.6275697946548462,0.000633278104942292,-0.00016042527568060905,0.0007712027872912586,0.0017638131976127625,-0.20270873606204987,-1.3657313585281372,-1.6958558559417725,-0.018387967720627785,0.13532309234142303,0.1002921313047409,0.0,0.0,0.0,0.0,-0.3000025448675481,0.51961377298239,0.5,-0.3603458106517792,-0.4905415177345276,0.0036140382289886475,-0.011305466294288635,0.006912460550665855,-0.00183920469135046,0.1033070832490921,0.4629111886024475,-0.996769368648529,0.09328339993953705,0.007135538384318352,0.09995382279157639,0.0,0.0,0.0,0.0,-0.29999491024331576,-0.5196181808098181,0.5
1.269,TAKEOFF,abrupt,1.0,0.5940895676612854,0.0079112583771348,-0.0005913914064876735,0.003411713056266308,-0.010667585767805576,0.001409265212714672,0.18554915487766266,0.29403096437454224,4.924323558807373,0.06409282982349396,0.10944665968418121,0.21665425598621368,0.0,0.0,0.0,0.0,0.6,0.0,0.5,-0.4160032570362091,0.6275697946548462,0.000633278104942292,-3.977645610575564e-05,-0.0001669009798206389,-0.0012153597781434655,-0.20256127417087555,-1.3660459518432617,-1.6950898170471191,-0.18367379903793335,-0.06308477371931076,0.06934022903442383,0.0,0.0,0.0,0.0,-0.3000025448675481,0.51961377298239,0.5,-0.361359179019928,-0.49206918478012085,0.00324476370587945,-0.01085138414055109,0.002191686537116766,-0.004575113300234079,0.10289229452610016,0.4635227620601654,-0.9957311749458313,-0.012514366768300533,-0.42914146184921265,0.06608795374631882,0.0,0.0,0.0,0.0,-0.29999491024331576,-0.5196181808098181,0.5
1.29,TAKEOFF,abrupt,1.0,0.5940895676612854,0.0079112583771348,-0.0005913914064876735,0.0035417170729488134,-0.01091762725263834,0.001028274418786168,0.18666835129261017,0.29420387744903564,4.926021575927734,0.10632230341434479,-0.001365501550026238,0.13969439268112183,0.0,0.0,0.0,0.0,0.6,0.0,0.5,-0.4160032570362091,0.6275697946548462,0.000633278104942292,-5.695425443263957e-06,2.268153548357077e-05,-0.0009499492589384317,-0.20256127417087555,-1.3660459518432617,-1.6950898170471191,-0.18367379903793335,-0.06308477371931076,0.06934022903442383,0.0,0.0,0.0,0.0,-0.3000025448675481,0.51961377298239,0.5,-0.361359179019928,-0.49206918478012085,0.00324476370587945,0.024266308173537254,-0.021193984895944595,0.007943456992506981,0.24910931289196014,0.2034892737865448,-0.9583398699760437,0.054389871656894684,0.28210335969924927,0.16283446550369263,0.0,0.0,0.0,0.0,-0.29999491024331576,-0.5196181808098181,0.5
1.31,TAKEOFF,abrupt,1.0,0.5940895676612854,0.0079112583771348,-0.0005913914064876735,-0.00048451582551933825,-0.001452750526368618,0.005040960386395454,0.11081584542989731,0.3185257613658905,4.968950271606445,-0.32635587453842163,0.010402679443359375,0.14119963347911835,0.0,0.0,0.0,0.0,0.6,0.0,0.5,-0.4160032570362091,0.6275697946548462,0.000633278104942292,-3.505329732433893e-05,0.00022080037160776556,-0.0006073357071727514,-0.20188355445861816,-1.364087700843811,-1.6944961547851562,-0.014535343274474144,-0.09240880608558655,0.12704883515834808,0.0,0.0,0.0,0.0,-0.3000025448675481,0.51961377298239,0.5,-0.361359179019928,-0.49206918478012085,0.00324476370587945,0.023912902921438217,-0.018852412700653076,0.012291627004742622,0.23774918913841248,0.21452605724334717,-0.998249351978302,-0.02036014199256897,0.39067578315734863,0.09070584923028946,0.0,0.0,0.0,0.0,-0.29999491024331576,-0.5196181808098181,0.5
1.331,TAKEOFF,abrupt,1.0,0.5945047736167908,0.008135640062391758,8.58245330164209e-05,-0.0005692812846973538,-0.0013710197526961565,0.004866457544267178,0.11036505550146103,0.3181861937046051,4.968024253845215,0.16466444730758667,-0.006487817503511906,0.08361306041479111,0.0,0.0,0.0,0.0,0.6,0.0,0.5,-0.4160032570362091,0.6275697946548462,0.000633278104942292,0.0015089325606822968,0.0020401806104928255,0.007787166628986597,-0.2071385383605957,-1.3718057870864868,-1.6935045719146729,0.2969400882720947,0.004430901259183884,-0.016021952033042908,0.0,0.0,0.0,0.0,-0.3000025448675481,0.51961377298239,0.5,-0.361359179019928,-0.49206918478012085,0.00324476370587945,0.022964220494031906,-0.01783101074397564,0.01518971472978592,0.23754483461380005,0.2120634764432907,-0.998536229133606,0.04020799696445465,0.16512706875801086,0.062011703848838806,0.0,0.0,0.0,0.0,-0.29999491024331576,-0.5196181808098181,0.5
1.35,TAKEOFF,abrupt,1.0,0.5945047736167908,0.008135640062391758,8.58245330164209e-05,-0.0005016829236410558,-0.0011355332098901272,0.005133732687681913,0.113111712038517,0.31890571117401123,4.966953754425049,-0.014716904610395432,0.21644103527069092,0.05860842019319534,0.0,0.0,0.0,0.0,0.6,0.0,0.5,-0.41580119729042053,0.6277658939361572,0.0020379112102091312,0.0015461017610505223,0.0024950182996690273,0.009502053260803223,-0.21607144176959991,-1.3743793964385986,-1.6551434993743896,0.11255941540002823,0.06130761280655861,-0.03383312746882439,0.0,0.0,0.0,0.0,-0.3000025448675481,0.51961377298239,0.5,-0.361359179019928,-0.49206918478012085,0.00324476370587945,0.002374173142015934,-0.001411023666150868,0.00178795016836375,0.11296438425779343,0.3704473376274109,-0.9336993098258972,0.022939885035157204,-0.0821453109383583,0.05500068515539169,0.0,0.0,0.0,0.0,-0.29999491024331576,-0.5196181808098181,0.5
1.369,TAKEOFF,abrupt,1.0,0.5945047736167908,0.008135640062391758,8.58245330164209e-05,-0.0006406913162209094,-0.0009668029961176217,0.005400959402322769,0.11267799884080887,0.31826236844062805,4.9679083824157715,-0.08562260121107101,-0.0031814484391361475,-0.12311507016420364,0.0,0.0,0.0,0.0,0.6,0.0,0.5,-0.41580119729042053,0.6277658939361572,0.0020379112102091312,0.0015461017610505223,0.0024950182996690273,0.009502053260803223,-0.20820926129817963,-1.3728647232055664,-1.647056221961975,-0.12182411551475525,0.11488675326108932,0.07298558205366135,0.0,0.0,0.0,0.0,-0.3000025448675481,0.51961377298239,0.5,-0.3555275499820709,-0.49423524737358093,0.005134623032063246,0.00896442960947752,-0.006160345394164324,0.003101366339251399,0.15041863918304443,0.3173549175262451,-0.8801915049552917,-0.05344101041555405,-0.19548165798187256,0.06669487804174423,0.0,0.0,0.0,0.0,-0.29999491024331576,-0.5196181808098181,0.5
1.389,TAKEOFF,abrupt,1.0,0.5945047736167908,0.008135640062391758,8.58245330164209e-05,-0.0007056451286189258,-0.0004577403306029737,0.005079369992017746,0.11023691296577454,0.3175612986087799,4.966714382171631,0.020537223666906357,-0.007973275147378445,0.18301546573638916,0.0,0.0,0.0,0.0,0.6,0.0,0.5,-0.41580119729042053,0.6277658939361572,0.0020379112102091312,0.001215855241753161,0.0014345409581437707,0.008185767568647861,-0.20413097739219666,-1.3743302822113037,-1.6421151161193848,0.012088906019926071,-0.04094428941607475,0.005189527757465839,0.0,0.0,0.0,0.0,-0.3000025448675481,0.51961377298239,0.5,-0.3555275499820709,-0.49423524737358093,0.005134623032063246,-0.007314345333725214,0.012259711511433125,-0.0013550042640417814,0.004996736068278551,0.45291975140571594,-0.8903906941413879,0.16587302088737488,-0.022525321692228317,0.03411143645644188,0.0,0.0,0.0,0.0,-0.29999491024331576,-0.5196181808098181,0.5
1.412,TAKEOFF,abrupt,1.0,0.5945047736167908,0.008135640062391758,8.58245330164209e-05,0.024508897215127945,-0.030512884259223938,-0.0007125720148906112,0.2305862456560135,0.010774421505630016,4.934451103210449,0.08312429487705231,-0.300275593996048,0.1180671826004982,0.0,0.0,0.0,0.0,0.6,0.0,0.5,-0.41580119729042053,0.6277658939361572,0.0020379112102091312,0.001078647910617292,-0.00019718326802831143,0.0040102736093103886,-0.19789358973503113,-1.3756693601608276,-1.6316241025924683,0.3119129538536072,0.0003039228613488376,0.02251587063074112,0.0,0.0,0.0,0.0,-0.3000025448675481,0.51961377298239,0.5,-0.3555275499820709,-0.49423524737358093,0.005134623032063246,-0.007067110389471054,0.012377702631056309,-0.0013476005988195539,0.004723499994724989,0.452684223651886,-0.8894760012626648,-0.1632552593946457,-0.08009780198335648,-0.003941666334867477,0.0,0.0,0.0,0.0,-0.29999491024331576,-0.5196181808098181,0.5
1.429,TAKEOFF,abrupt,1.0,0.5997372269630432,0.005504546221345663,-0.0009420438436791301,0.021235976368188858,-0.020287195220589638,-0.000929193920455873,0.24889758229255676,0.1521001011133194,4.928324222564697,-0.05236094444990158,-0.007165842689573765,0.12888769805431366,0.0,0.0,0.0,0.0,0.6,0.0,0.5,-0.41580119729042053,0.6277658939361572,0.0020379112102091312,0.001078647910617292,-0.00019718326802831143,0.0040102736093103886,-0.19520746171474457,-1.3746964931488037,-1.6332814693450928,0.17185860872268677,-0.13293084502220154,0.023266348987817764,0.0,0.0,0.0,0.0,-0.3000025448675481,0.51961377298239,0.5,-0.3555275499820709,-0.49423524737358093,0.005134623032063246,-0.014707627706229687,0.01952419802546501,-0.003146492876112461,-0.047499753534793854,0.5132274031639099,-0.9090672731399536,0.16203521192073822,0.0877314954996109,0.06574264913797379,0.0,0.0,0.0,0.0,-0.29999491024331576,-0.5196181808098181,0.5
1.449,TAKEOFF,abrupt,1.0,0.5997372269630432,0.005504546221345663,-0.0009420438436791301,0.02470485121011734,-0.021664079278707504,-0.002882745349779725,0.2889349162578583,0.1614195555448532,4.88250207901001,0.34659722447395325,0.05181979387998581,-0.22805079817771912,0.0,0.0,0.0,0.0,0.6,0.0,0.5,-0.41576921939849854,0.6274611353874207,0.002213940490037203,0.001143949688412249,-0.00018034849199466407,0.004194627515971661,-0.19520746171474457,-1.3746964931488037,-1.6332814693450928,0.17185860872268677,-0.13293084502220154,0.023266348987817764,0.0,0.0,0.0,0.0,-0.3000025448675481,0.51961377298239,0.5,-0.3555275499820709,-0.49423524737358093,0.005134623032063246,-0.016986019909381866,0.02106115221977234,-0.0039834571070969105,-0.054362911731004715,0.5271484851837158,-0.9272083640098572,0.07770270854234695,0.015183381736278534,-0.036456696689128876,0.0,0.0,0.0,0.0,-0.29999491024331576,-0.5196181808098181,0.5
1.469,TAKEOFF,abrupt,1.0,0.5997372269630432,0.005504546221345663,-0.0009420438436791301,0.015083969570696354,-0.013964137062430382,-0.0009722563554532826,0.19339430332183838,0.19744384288787842,4.9377288818359375,-0.012451227754354477,0.04826844111084938,0.09536760300397873,0.0,0.0,0.0,0.0,0.6,0.0,0.5,-0.41576921939849854,0.6274611353874207,0.002213940490037203,0.0008894390775822103,-0.0001815852156141773,0.00468165660277009,-0.192936971783638,-1.3743218183517456,-1.6332228183746338,-0.22017240524291992,0.015280811116099358,-0.1372697800397873,0.0,0.0,0.0,0.0,-0.3000025448675481,0.51961377298239,0.5,-0.3615773618221283,-0.48888736963272095,0.00399372773244977,-0.017536979168653488,0.021435299888253212,-0.003969880286604166,0.018893495202064514,0.5466022491455078,-0.973820686340332,0.050950463861227036,0.04529104754328728,-0.026953095570206642,0.0,0.0,0.0,0.0,-0.29999491024331576,-0.5196181808098181,0.5
1.489,TAKEOFF,abrupt,1.0,0.5997372269630432,0.005504546221345663,-0.0009420438436791301,0.01565236784517765,-0.014100885950028896,-0.001200363622047007,0.22215895354747772,0.23882019519805908,4.908228874206543,0.12486271560192108,0.22541013360023499,-0.09508927911520004,0.0,0.0,0.0,0.0,0.6,0.0,0.5,-0.41576921939849854,0.6274611353874207,0.002213940490037203,0.0006763997953385115,0.0016818143194541335,0.009363560006022453,-0.1930037885904312,-1.375551700592041,-1.6328516006469727,-0.04411540552973747,-0.022755857557058334,0.08559930324554443,0.0,0.0,0.0,0.0,-0.3000025448675481,0.51961377298239,0.5,-0.3615773618221283,-0.48888736963272095,0.00399372773244977,-0.020787006244063377,0.011952303349971771,-0.006882010493427515,0.018981030210852623,0.5481740832328796,-0.9742206931114197,-0.20151062309741974,-0.24052771925926208,-0.19622865319252014,0.0,0.0,0.0,0.0,-0.29999491024331576,-0.5196181808098181,0.5
1.512,TAKEOFF,abrupt,1.0,0.5997372269630432,0.005504546221345663,-0.0009420438436791301,0.01291517075151205,-0.015437474474310875,-0.00024586942163296044,0.22289298474788666,0.23754550516605377,4.906961917877197,0.0966058075428009,0.040413036942481995,0.2318287491798401,0.0,0.0,0.0,0.0,0.6,0.0,0.5,-0.41576921939849854,0.6274611353874207,0.002213940490037203,0.0006458667921833694,1.3161036349629285e-06,0.0024825797881931067,-0.19226980209350586,-1.3730491399765015,-1.630964756011963,-0.0001541046513011679,0.15865036845207214,0.09728754311800003,0.0,0.0,0.0,0.0,-0.3000025448675481,0.51961377298239,0.5,-0.3615773618221283,-0.48888736963272095,0.00399372773244977,-0.018271606415510178,0.01285844761878252,-0.00214075087569654,0.01453588530421257,0.5241564512252808,-0.987665593624115,-0.16163912415504456,-0.14871755242347717,0.1265629529953003,0.0,0.0,0.0,0.0,-0.29999491024331576,-0.5196181808098181,0.5
1.529,TAKEOFF,abrupt,1.0,0.5942874550819397,0.006859320681542158,-0.0010905461385846138,0.008628739044070244,-0.004183282144367695,-0.001962627749890089,0.13857193291187286,0.2894118130207062,4.925626277923584,0.07787000387907028,-0.02727961540222168,-0.22303332388401031,0.0,0.0,0.0,0.0,0.6,0.0,0.5,-0.41576921939849854,0.6274611353874207,0.002213940490037203,0.0006458667921833694,1.3161036349629285e-06,0.0024825797881931067,-0.1898716390132904,-1.3754180669784546,-1.6279890537261963,0.08389702439308167,0.09137649834156036,-0.17170828580856323,0.0,0.0,0.0,0.0,-0.3000025448675481,0.51961377298239,0.5,-0.3615773618221283,-0.48888736963272095,0.00399372773244977,-0.017068587243556976,0.013000094331800938,-0.0002710960397962481,0.013501166366040707,0.5098230838775635,-1.0040456056594849,0.14550338685512543,0.20425096154212952,0.194248765707016,0.0,0.0,0.0,0.0,-0.29999491024331576,-0.5196181808098181,0.5
1.55,TAKEOFF,abrupt,1.0,0.5942874550819397,0.006859320681542158,-0.0010905461385846138,0.006882118992507458,-0.0023723177146166563,-0.002966836327686906,0.09755994379520416,0.29586324095726013,4.972519397735596,-0.031093621626496315,-0.07164512574672699,-0.18024474382400513,0.0,0.0,0.0,0.0,0.6,0.0,0.5,-0.41585731506347656,0.6273767948150635,0.0015207496471703053,0.00044707083725370467,-0.0002499759430065751,0.0008927677990868688,-0.1898716390132904,-1.3754180669784546,-1.6279890537261963,0.08389702439308167,0.09137649834156036,-0.17170828580856323,0.0,0.0,0.0,0.0,-0.3000025448675481,0.51961377298239,0.5,-0.3615773618221283,-0.48888736963272095,0.00399372773244977,-0.01753854565322399,0.013455755077302456,-9.298855729866773e-05,0.014522652141749859,0.5103766322135925,-1.0016266107559204,0.18994952738285065,-0.06348244100809097,0.17611144483089447,0.0,0.0,0.0,0.0,-0.29999491024331576,-0.5196181808098181,0.5
1.569,TAKEOFF,abrupt,1.0,0.5942874550819397,0.006859320681542158,-0.0010905461385846138,0.013618038967251778,-0.0008777087787166238,0.00020621098519768566,0.11888229101896286,0.24367746710777283,4.965725898742676,-0.21600012481212616,-0.05629868805408478,0.03684607520699501,0.0,0.0,0.0,0.0,0.6,0.0,0.5,-0.41585731506347656,0.6273767948150635,0.0015207496471703053,0.00033084803726524115,-0.0012686144327744842,-0.0029317885637283325,-0.18183478713035583,-1.3763431310653687,-1.6635485887527466,-0.19626647233963013,0.14156505465507507,-0.03409656882286072,0.0,0.0,0.0,0.0,-0.3000025448675481,0.51961377298239,0.5,-0.3587585985660553,-0.49197596311569214,0.004287910647690296,0.01016742829233408,-0.005281316582113504,-8.028500451473519e-05,0.15698376297950745,0.29276221990585327,-0.904424250125885,-0.27168887853622437,-0.012592285871505737,0.16387616097927094,0.0,0.0,0.0,0.0,-0.29999491024331576,-0.5196181808098181,0.5
1.59,TAKEOFF,abrupt,1.0,0.5942874550819397,0.006859320681542158,-0.0010905461385846138,0.014027762226760387,-0.0007346863276325166,0.00011008405999746174,0.11824745684862137,0.24292966723442078,4.965631008148193,0.0934218168258667,-0.05969899892807007,0.1856396496295929,0.0,0.0,0.0,0.0,0.6,0.0,0.5,-0.41585731506347656,0.6273767948150635,0.0015207496471703053,0.0004990878514945507,-0.0010930183343589306,-0.0025901286862790585,-0.18183478713035583,-1.3763431310653687,-1.6635485887527466,-0.19626647233963013,0.14156505465507507,-0.03409656882286072,0.0,0.0,0.0,0.0,-0.3000025448675481,0.51961377298239,0.5,-0.3587585985660553,-0.49197596311569214,0.004287910647690296,0.010546006262302399,-0.005364288575947285,-0.0002834689512383193,0.15698376297950745,0.29276221990585327,-0.904424250125885,-0.27168887853622437,-0.012592285871505737,0.16387616097927094,0.0,0.0,0.0,0.0,-0.29999491024331576,-0.5196181808098181,0.5
1.611,TAKEOFF,abrupt,1.0,0.5942874550819397,0.006859320681542158,-0.0010905461385846138,0.014027762226760387,-0.0007346863276325166,0.00011008405999746174,0.007150851655751467,0.30928105115890503,5.006521224975586,0.016544857993721962,-0.22084291279315948,-0.09327134490013123,0.0,0.0,0.0,0.0,0.6,0.0,0.5,-0.41585731506347656,0.6273767948150635,0.0015207496471703053,0.0006279341178014874,-0.001900007133372128,-0.006106626242399216,-0.17560388147830963,-1.3794314861297607,-1.6968623399734497,0.16301581263542175,-0.48434150218963623,0.09170719981193542,0.0,0.0,0.0,0.0,-0.3000025448675481,0.51961377298239,0.5,-0.3587585985660553,-0.49197596311569214,0.004287910647690296,-0.0039014234207570553,0.010185214690864086,-0.003138331463560462,0.041529830545186996,0.40797898173332214,-0.9182333946228027,0.030693141743540764,0.07738379389047623,-0.027888396754860878,0.0,0.0,0.0,0.0,-0.29999491024331576,-0.5196181808098181,0.5
1.631,TAKEOFF,abrupt,1.0,0.5942874550819397,0.006859320681542158,-0.0010905461385846138,0.004880985710769892,0.012790205888450146,-0.00029900475055910647,0.007150851655751467,0.30928105115890503,5.006521224975586,0.016544857993721962,-0.22084291279315948,-0.09327134490013123,0.0,0.0,0.0,0.0,0.6,0.0,0.5,-0.41585731506347656,0.6273767948150635,0.0015207496471703053,0.0005989541532471776,-0.0017014308832585812,-0.005800004582852125,-0.1750662624835968,-1.3759263753890991,-1.6937799453735352,-0.10383416712284088,-0.10622626543045044,-0.05414552614092827,0.0,0.0,0.0,0.0,-0.3000025448675481,0.51961377298239,0.5,-0.3587585985660553,-0.49197596311569214,0.004287910647690296,-0.007852585054934025,0.01443891879171133,-0.004027476999908686,0.041529830545186996,0.40797898173332214,-0.9182333946228027,0.030693141743540764,0.07738379389047623,-0.027888396754860878,0.0,0.0,0.0,0.0,-0.29999491024331576,-0.5196181808098181,0.5
1.649,TAKEOFF,abrupt,1.0,0.5975865721702576,0.010320616886019707,-0.0009444612660445273,0.02047189697623253,0.013292355462908745,0.0042351363226771355,-0.055332791060209274,0.349170982837677,5.041258811950684,0.09002815932035446,0.04190835356712341,-0.26805686950683594,0.0,0.0,0.0,0.0,0.6,0.0,0.5,-0.41585731506347656,0.6273767948150635,0.0015207496471703053,0.0008707611123099923,-0.0025667576119303703,-0.00823909230530262,-0.16978052258491516,-1.3773927688598633,-1.722968339920044,0.29216110706329346,0.059710051864385605,0.15065611898899078,0.0,0.0,0.0,0.0,-0.3000025448675481,0.51961377298239,0.5,-0.3587585985660553,-0.49197596311569214,0.004287910647690296,-0.007852585054934025,0.01443891879171133,-0.004027476999908686,0.012736394070088863,0.43694010376930237,-0.9347734451293945,0.08712274581193924,0.27969101071357727,0.1335548311471939,0.0,0.0,0.0,0.0,-0.29999491024331576,-0.5196181808098181,0.5
1.669,TAKEOFF,abrupt,1.0,0.5975865721702576,0.010320616886019707,-0.0009444612660445273,0.0275551900267601,0.00801053736358881,0.009714704006910324,0.019083863124251366,0.1904505044221878,5.021364212036133,-0.13646018505096436,0.07401514053344727,0.014807170256972313,0.0,0.0,0.0,0.0,0.6,0.0,0.5,-0.41573095321655273,0.6269686818122864,5.089502519695088e-05,0.0009473832906223834,-0.0031092886347323656,-0.009251006878912449,-0.16535931825637817,-1.3787611722946167,-1.748727560043335,0.11485373228788376,0.40624552965164185,-0.18990519642829895,0.0,0.0,0.0,0.0,-0.3000025448675481,0.51961377298239,0.5,-0.36116182804107666,-0.48895883560180664,0.003440167987719178,-0.009140018373727798,0.015515240840613842,-0.004265722818672657,0.008404050953686237,0.4402276575565338,-0.9478504061698914,0.06770624965429306,-0.15816406905651093,0.19410660862922668,0.0,0.0,0.0,0.0,-0.29999491024331576,-0.5196181808098181,0.5
1.689,TAKEOFF,abrupt,1.0,0.5975865721702576,0.010320616886019707,-0.0009444612660445273,0.029675869271159172,0.004848627373576164,0.013814977370202541,0.0955146923661232,0.13911543786525726,4.967864036560059,0.2871972918510437,0.12612326443195343,0.0866648405790329,0.0,0.0,0.0,0.0,0.6,0.0,0.5,-0.41573095321655273,0.6269686818122864,5.089502519695088e-05,0.001245406223461032,-0.002563044661656022,-0.009774667210876942,-0.16496695578098297,-1.3867484331130981,-1.7920628786087036,-0.022923223674297333,-0.04189271107316017,-0.08489605784416199,0.0,0.0,0.0,0.0,-0.3000025448675481,0.51961377298239,0.5,-0.36116182804107666,-0.48895883560180664,0.003440167987719178,-0.010047351010143757,0.016488442197442055,-0.0043941386975348,0.1078680008649826,0.470817506313324,-0.9910774827003479,0.1155877560377121,-0.024132993072271347,0.19239917397499084,0.0,0.0,0.0,0.0,-0.29999491024331576,-0.5196181808098181,0.5
1.71,TAKEOFF,abrupt,1.0,0.5975865721702576,0.010320616886019707,-0.0009444612660445273,0.030667422339320183,0.004834139719605446,0.013582696206867695,0.09867285192012787,0.13935154676437378,4.967598915100098,0.1967717558145523,0.0022673343773931265,0.09278368204832077,0.0,0.0,0.0,0.0,-0.403949137907212,-0.4436497424590938,0.5,-0.41573095321655273,0.6269686818122864,5.089502519695088e-05,0.001185534754768014,-0.002717043971642852,-0.009039794094860554,-0.1653943657875061,-1.3854964971542358,-1.820251703262329,-0.2533905804157257,0.12705133855342865,0.08034376055002213,0.0,0.0,0.0,0.0,0.5865409455917482,-0.12637135412876552,0.5,-0.36116182804107666,-0.48895883560180664,0.003440167987719178,-0.013339607045054436,0.0048679751344025135,-0.0028516773600131273,0.09844803810119629,0.4560108184814453,-1.0019128322601318,-0.01616501249372959,0.1999974399805069,0.22777530550956726,0.0,0.0,0.0,0.0,-0.18542053371058217,0.5706305509508607,0.5
1.729,TAKEOFF,abrupt,1.0,0.6019242405891418,0.011453703045845032,0.0002728798717726022,0.030667422339320183,0.004834139719605446,0.013582696206867695,0.09867285192012787,0.13935154676437378,4.967598915100098,0.1967717558145523,0.0022673343773931265,0.09278368204832077,0.0,0.0,0.0,0.0,0.6,0.0,0.5,-0.41573095321655273,0.6269686818122864,5.089502519695088e-05,0.001185534754768014,-0.002717043971642852,-0.009039794094860554,-0.1653943657875061,-1.3854964971542358,-1.820251703262329,-0.2533905804157257,0.12705133855342865,0.08034376055002213,0.0,0.0,0.0,0.0,-0.3000025448675481,0.51961377298239,0.5,-0.36116182804107666,-0.48895883560180664,0.003440167987719178,-0.005984174553304911,0.0020209820941090584,-0.0009729741141200066,0.09844803810119629,0.4560108184814453,-1.0019128322601318,-0.01616501249372959,0.1999974399805069,0.22777530550956726,0.0,0.0,0.0,0.0,-0.29999491024331576,-0.5196181808098181,0.5
1.749,TAKEOFF,abrupt,1.0,0.6019242405891418,0.011453703045845032,0.0002728798717726022,0.010215711779892445,0.026989860460162163,0.0020861767698079348,-0.08618900924921036,0.2867213189601898,5.01749849319458,-0.07110968232154846,0.023357771337032318,0.02913605235517025,0.0,0.0,0.0,0.0,0.6,0.0,0.5,-0.41573095321655273,0.6269686818122864,5.089502519695088e-05,-0.0005967977340333164,0.001221796846948564,-0.004006712231785059,-0.19749855995178223,-1.3732751607894897,-1.7935763597488403,0.06338317692279816,-0.050292693078517914,0.035244882106781006,0.0,0.0,0.0,0.0,-0.3000025448675481,0.51961377298239,0.5,-0.36116182804107666,-0.48895883560180664,0.003440167987719178,-0.005990893114358187,0.002059586811810732,-0.0007743395981378853,0.11815045773983002,0.3942239284515381,-0.9280757308006287,-0.009354320354759693,0.04152119532227516,-0.2517300248146057,0.0,0.0,0.0,0.0,-0.29999491024331576,-0.5196181808098181,0.5
1.769,TAKEOFF,abrupt,1.0,0.6019242405891418,0.011453703045845032,0.0002728798717726022,-0.005391050595790148,0.036970105022192,-0.011353413574397564,-0.16146838665008545,0.3994475305080414,5.08635139465332,-0.2666270434856415,0.1943400651216507,0.11214476078748703,0.0,0.0,0.0,0.0,0.6,0.0,0.5,-0.4160257577896118,0.627545177936554,0.0004910272546112537,-0.0002623542968649417,0.00211233994923532,-0.00028414156986400485,-0.20618432760238647,-1.3746235370635986,-1.767547369003296,0.02963150292634964,-0.10029137879610062,-0.09130726009607315,0.0,0.0,0.0,0.0,-0.3000025448675481,0.51961377298239,0.5,-0.3588135242462158,-0.49195390939712524,0.00401419959962368,-0.0061021484434604645,0.002070065587759018,-0.001571725937537849,0.11815045773983002,0.3942239284515381,-0.9280757308006287,-0.009354320354759693,0.04152119532227516,-0.2517300248146057,0.0,0.0,0.0,0.0,-0.29999491024331576,-0.5196181808098181,0.5
1.789,TAKEOFF,abrupt,1.0,0.6019242405891418,0.011453703045845032,0.0002728798717726022,-0.007677347399294376,0.036991409957408905,-0.014361001551151276,-0.15584243834018707,0.41392815113067627,5.112703323364258,-0.07403387874364853,0.20657199621200562,0.21506863832473755,0.0,0.0,0.0,0.0,0.6,0.0,0.5,-0.4160257577896118,0.627545177936554,0.0004910272546112537,-5.9211550251347944e-05,0.002984448801726103,0.004076177719980478,-0.21397307515144348,-1.3756754398345947,-1.7343004941940308,-0.0961381196975708,0.25852102041244507,0.0539252869784832,0.0,0.0,0.0,0.0,-0.3000025448675481,0.51961377298239,0.5,-0.3588135242462158,-0.49195390939712524,0.00401419959962368,-0.01551374327391386,0.005726096220314503,-0.0017927652224898338,0.08956943452358246,0.4686114490032196,-0.9933620691299438,0.1375223994255066,0.0031248603481799364,0.11989722400903702,0.0,0.0,0.0,0.0,-0.29999491024331576,-0.5196181808098181,0.5
1.81,TAKEOFF,abrupt,1.0,0.6019242405891418,0.011453703045845032,0.0002728798717726022,-0.008112414740025997,0.03814133629202843,-0.014270052313804626,-0.15630072355270386,0.4103766977787018,5.114046096801758,-0.05827166512608528,0.02475999854505062,0.0043467083014547825,0.0,0.0,0.0,0.0,0.6,0.0,0.5,-0.4160257577896118,0.627545177936554,0.0004910272546112537,0.0004956962075084448,0.00256956834346056,0.006181010976433754,-0.21187950670719147,-1.3782360553741455,-1.7213616371154785,-0.06270306557416916,-0.00656958157196641,0.027802621945738792,0.0,0.0,0.0,0.0,-0.3000025448675481,0.51961377298239,0.5,-0.3588135242462158,-0.49195390939712524,0.00401419959962368,-0.01598851941525936,0.005947417579591274,-0.0017710182582959533,0.11793957650661469,0.46629929542541504,-1.0353610515594482,-0.03466358780860901,-0.06182662770152092,0.18065939843654633,0.0,0.0,0.0,0.0,-0.29999491024331576,-0.5196181808098181,0.5
1.829,TAKEOFF,abrupt,1.0,0.5940641760826111,0.009412827901542187,-0.0010167767759412527,-0.008112414740025997,0.03814133629202843,-0.014270052313804626,0.07532775402069092,0.6408823728561401,5.107174396514893,0.002805949654430151,-0.1120077446103096,-0.014394385740160942,0.0,0.0,0.0,0.0,-0.3811970930816428,-0.46334520201045065,0.5,-0.4160257577896118,0.627545177936554,0.0004910272546112537,0.0006716324132867157,0.0026400487404316664,0.006260634399950504,-0.22150969505310059,-1.3787249326705933,-1.6798615455627441,-0.04552362486720085,-0.22247940301895142,-0.14652226865291595,0.0,0.0,0.0,0.0,0.5921393197159022,-0.09680406007182048,0.5,-0.3588135242462158,-0.49195390939712524,0.00401419959962368,-0.016025712713599205,0.0028533770237118006,-0.006790194660425186,0.11745753139257431,0.46602296829223633,-1.0363492965698242,-0.04248955100774765,-0.004851602949202061,-0.008000182919204235,0.0,0.0,0.0,0.0,-0.21379795208243854,0.5606161214996901,0.5
1.849,TAKEOFF,abrupt,1.0,0.5940641760826111,0.009412827901542187,-0.0010167767759412527,-0.03790774568915367,0.00453075161203742,-0.002966151339933276,0.08014535158872604,0.6292129755020142,5.133240699768066,0.0898403748869896,0.15471218526363373,0.17115262150764465,0.0,0.0,0.0,0.0,0.6,0.0,0.5,-0.4160257577896118,0.627545177936554,0.0004910272546112537,0.001126285525970161,0.003990043420344591,0.01001125480979681,-0.22150969505310059,-1.3787249326705933,-1.6798615455627441,-0.04552362486720085,-0.22247940301895142,-0.14652226865291595,0.0,0.0,0.0,0.0,-0.3000025448675481,0.51961377298239,0.5,-0.3588135242462158,-0.49195390939712524,0.00401419959962368,0.006143948528915644,-0.012937154620885849,0.0023083374835550785,0.24039490520954132,0.27892470359802246,-0.9585972428321838,0.0024295069742947817,-0.08699115365743637,-0.15130615234375,0.0,0.0,0.0,0.0,-0.29999491024331576,-0.5196181808098181,0.5
1.869,TAKEOFF,abrupt,1.0,0.5940641760826111,0.009412827901542187,-0.0010167767759412527,-0.03707357123494148,0.004436297807842493,0.0021579398307949305,0.08444521576166153,0.612091600894928,5.157621383666992,0.1506079137325287,-0.15726935863494873,-0.2029563933610916,0.0,0.0,0.0,0.0,-0.37339709493498446,-0.4696537123180377,0.5,-0.4156745970249176,0.6280533671379089,0.0023247466888278723,0.0004182432312518358,0.003982344176620245,0.010057002305984497,-0.22058218717575073,-1.375427484512329,-1.6830424070358276,-0.0375325046479702,0.11428247392177582,-0.18190430104732513,0.0,0.0,0.0,0.0,0.5936750312062792,-0.08689049040155884,0.5,-0.35593825578689575,-0.49601417779922485,0.005040228366851807,0.014816359616816044,-0.019322559237480164,0.004033681470900774,0.2642739415168762,0.2145555019378662,-0.9167482852935791,0.033743079751729965,-0.10972033441066742,0.10243900865316391,0.0,0.0,0.0,0.0,-0.2231410680345726,0.5569632517109098,0.5
1.891,TAKEOFF,abrupt,1.0,0.5940641760826111,0.009412827901542187,-0.0010167767759412527,-0.038086485117673874,0.0045882402919232845,0.0021354712080210447,0.08422362804412842,0.6121616959571838,5.15659236907959,0.1945847123861313,-0.058372627943754196,-0.2479352056980133,0.0,0.0,0.0,0.0,0.6,0.0,0.5,-0.4156745970249176,0.6280533671379089,0.0023247466888278723,0.0004182432312518358,0.003982344176620245,0.010057002305984497,-0.22058218717575073,-1.375427484512329,-1.6830424070358276,-0.0375325046479702,0.11428247392177582,-0.18190430104732513,0.0,0.0,0.0,0.0,-0.3000025448675481,0.51961377298239,0.5,-0.35593825578689575,-0.49601417779922485,0.005040228366851807,-0.001082971808500588,-0.002885163761675358,0.0027864868752658367,0.16895388066768646,0.3454956114292145,-0.9636809229850769,0.10548832267522812,0.2062988132238388,0.049472078680992126,0.0,0.0,0.0,0.0,-0.29999491024331576,-0.5196181808098181,0.5
1.911,TAKEOFF,abrupt,1.0,0.5940641760826111,0.009412827901542187,-0.0010167767759412527,-0.038086485117673874,0.0045882402919232845,0.0021354712080210447,0.08363591879606247,0.6127294301986694,5.155203819274902,-0.044852130115032196,0.16701199114322662,-0.01266392506659031,0.0,0.0,0.0,0.0,0.6,0.0,0.5,-0.4156745970249176,0.6280533671379089,0.0023247466888278723,-0.0004892133292742074,0.00046837155241519213,0.002411473309621215,-0.18957579135894775,-1.3713388442993164,-1.7105042934417725,-0.08931726962327957,-0.09970010817050934,-0.1355341225862503,0.0,0.0,0.0,0.0,-0.3000025448675481,0.51961377298239,0.5,-0.35593825578689575,-0.49601417779922485,0.005040228366851807,-0.0010420167818665504,-0.004793618340045214,0.0003459944564383477,0.17722925543785095,0.34035640954971313,-0.9996158480644226,-0.0704699233174324,0.2613895833492279,0.03620104119181633,0.0,0.0,0.0,0.0,-0.29999491024331576,-0.5196181808098181,0.5
1.929,TAKEOFF,abrupt,1.0,0.5985057353973389,0.008564946241676807,-0.00035955588100478053,0.006105753127485514,-0.00475732609629631,0.0024914622772485018,0.2049332857131958,0.26604053378105164,5.123390197753906,0.04035000503063202,0.09047199785709381,-0.19593971967697144,0.0,0.0,0.0,0.0,-0.36150207010080637,-0.47886976654705576,0.5,-0.4156745970249176,0.6280533671379089,0.0023247466888278723,-0.00012660482025239617,-0.002338932128623128,-0.00501101603731513,-0.1756179928779602,-1.369502305984497,-1.7389893531799316,-0.20122064650058746,-0.17801709473133087,-0.22387917339801788,0.0,0.0,0.0,0.0,0.5956673007354998,-0.07197545994631482,0.5,-0.35593825578689575,-0.49601417779922485,0.005040228366851807,-0.00039512655348517,-0.006073231343179941,-0.001631139311939478,0.18008626997470856,0.33132311701774597,-1.042507290840149,0.13734906911849976,0.12705235183238983,-0.21490348875522614,0.0,0.0,0.0,0.0,-0.23703797056720582,0.5511923443856785,0.5
1.951,TAKEOFF,abrupt,1.0,0.5985057353973389,0.008564946241676807,-0.00035955588100478053,0.01778210699558258,-0.009729492478072643,0.006445628125220537,0.2049332857131958,0.26604053378105164,5.123390197753906,0.04035000503063202,0.09047199785709381,-0.19593971967697144,0.0,0.0,0.0,0.0,0.6,0.0,0.5,-0.4156745970249176,0.6280533671379089,0.0023247466888278723,-0.0004338884900789708,-0.0012004724703729153,-0.0018551789689809084,-0.18511052429676056,-1.3657666444778442,-1.723647952079773,-0.08460897207260132,0.23202449083328247,0.1861884742975235,0.0,0.0,0.0,0.0,-0.3000025448675481,0.51961377298239,0.5,-0.35593825578689575,-0.49601417779922485,0.005040228366851807,-0.0050729550421237946,-0.0014342495705932379,-0.0046945796348154545,0.18008626997470856,0.33132311701774597,-1.042507290840149,0.13734906911849976,0.12705235183238983,-0.21490348875522614,0.0,0.0,0.0,0.0,-0.29999491024331576,-0.5196181808098181,0.5
1.969,TAKEOFF,abrupt,1.0,0.5985057353973389,0.008564946241676807,-0.00035955588100478053,0.012352930381894112,0.003347259946167469,0.006118310149759054,0.1412220448255539,0.22005267441272736,5.137527942657471,-0.1680508852005005,0.007787808310240507,-0.040503520518541336,0.0,0.0,0.0,0.0,0.6,0.0,0.5,-0.4158068597316742,0.627587616443634,0.0015670707216486335,-4.8454501666128635e-05,-0.0019366766791790724,0.00013426122313831002,-0.18564708530902863,-1.3707208633422852,-1.7212649583816528,-0.09522022306919098,-0.0505540557205677,-0.11237899214029312,0.0,0.0,0.0,0.0,-0.3000025448675481,0.51961377298239,0.5,-0.3617648184299469,-0.4916125237941742,0.0032101275864988565,-0.0055482820607721806,-0.0032797646708786488,-0.0075529939495027065,0.14994403719902039,0.3759520351886749,-1.0914241075515747,0.042222343385219574,-0.005576061550527811,0.13622179627418518,0.0,0.0,0.0,0.0,-0.29999491024331576,-0.5196181808098181,0.5
1.99,TAKEOFF,abrupt,1.0,0.5985057353973389,0.008564946241676807,-0.00035955588100478053,0.012609782628715038,0.0032213677186518908,0.0065277209505438805,0.2787817716598511,0.3608098328113556,5.099715709686279,-0.07335267215967178,0.2244236022233963,-0.05019416660070419,0.0,0.0,0.0,0.0,0.6,0.0,0.5,-0.4158068597316742,0.627587616443634,0.0015670707216486335,-0.00010237158130621538,-0.0016725329915061593,0.0008269578102044761,-0.18629144132137299,-1.3721493482589722,-1.7129385471343994,0.13179226219654083,-0.3313784599304199,0.018081476911902428,0.0,0.0,0.0,0.0,-0.3000025448675481,0.51961377298239,0.5,-0.3617648184299469,-0.4916125237941742,0.0032101275864988565,-0.005128609482198954,-0.003517785109579563,-0.007602476980537176,0.1519954800605774,0.3774242103099823,-1.0890744924545288,0.06012368202209473,0.16416937112808228,0.18242689967155457,0.0,0.0,0.0,0.0,-0.29999491024331576,-0.5196181808098181,0.5
2.011,TAKEOFF,abrupt,1.0,0.5985057353973389,0.008564946241676807,-0.00035955588100478053,-0.003062932752072811,-0.015977956354618073,-0.0003409706987440586,0.29831939935684204,0.37803220748901367,5.058610916137695,0.07392776012420654,0.16586948931217194,-0.20691415667533875,0.0,0.0,0.0,0.0,-0.34528966097618763,-0.4906883430681326,0.5,-0.4158068597316742,0.627587616443634,0.0015670707216486335,-0.00029604515293613076,-0.0015137221198529005,0.0010787859791889787,-0.18782378733158112,-1.369940161705017,-1.699404001235962,-0.03220939263701439,-0.03082260489463806,0.2367437332868576,0.0,0.0,0.0,0.0,0.5977406828564378,-0.05201995826910435,0.5,-0.3617648184299469,-0.4916125237941742,0.0032101275864988565,-0.004946934059262276,-0.0036578038707375526,-0.007572480011731386,0.15181368589401245,0.37827983498573303,-1.0890882015228271,0.09372207522392273,-0.1550172120332718,0.04154698923230171,0.0,0.0,0.0,0.0,-0.25533376116576856,0.5429591793210078,0.5
2.031,TAKEOFF,abrupt,1.0,0.5985057353973389,0.008564946241676807,-0.00035955588100478053,-0.0052586086094379425,-0.018476517871022224,-0.0015585556393489242,0.29831939935684204,0.37803220748901367,5.058610916137695,0.07392776012420654,0.16586948931217194,-0.20691415667533875,0.0,0.0,0.0,0.0,0.6,0.0,0.5,-0.4158068597316742,0.627587616443634,0.0015670707216486335,-0.00012637341569643468,-0.0016874108696356416,0.0016716127283871174,-0.18918700516223907,-1.3689972162246704,-1.6880278587341309,0.06659340858459473,0.0067443447187542915,-0.09830375760793686,0.0,0.0,0.0,0.0,-0.3000025448675481,0.51961377298239,0.5,-0.3617648184299469,-0.4916125237941742,0.0032101275864988565,-0.00508669950067997,-0.0037103609647601843,-0.007802349049597979,0.15333667397499084,0.37731146812438965,-1.0891473293304443,-0.1466887891292572,0.16153258085250854,0.12051030248403549,0.0,0.0,0.0,0.0,-0.29999491024331576,-0.5196181808098181,0.5
2.05,TAKEOFF,abrupt,1.0,0.595062792301178,0.004691494628787041,-0.0009352981578558683,-0.00553499860689044,-0.019075991585850716,-0.0016018245369195938,0.2995302379131317,0.371558278799057,4.983318328857422,-0.003512402530759573,0.01227880921214819,-0.032216548919677734,0.0,0.0,0.0,0.0,-0.33703752893042954,-0.4963926914172587,0.5,-0.415961891412735,0.6274079084396362,0.0016595360357314348,-0.00032695612753741443,-0.0015124415513128042,0.001854742644354701,-0.18361914157867432,-1.3708747625350952,-1.7131115198135376,-0.3683250844478607,-0.12979784607887268,-0.05667765438556671,0.0,0.0,0.0,0.0,0.5985268613579052,-0.042018998477532474,0.5,-0.3617648184299469,-0.4916125237941742,0.0032101275864988565,-0.004988620989024639,-0.00375352636910975,-0.007975955493748188,0.15224280953407288,0.37287038564682007,-1.0886558294296265,0.15547895431518555,-0.07907417416572571,-0.05949864909052849,0.0,0.0,0.0,0.0,-0.26437586323616885,0.5386143359938821,0.5
2.07,TAKEOFF,abrupt,1.0,0.595062792301178,0.004691494628787041,-0.0009352981578558683,-0.005291657522320747,-0.019006894901394844,-0.0013512518489733338,0.2889356017112732,0.36310455203056335,4.946403980255127,0.008770623244345188,0.1268845647573471,0.16649498045444489,0.0,0.0,0.0,0.0,0.6,0.0,0.5,-0.415961891412735,0.6274079084396362,0.0016595360357314348,-0.00035226705949753523,-0.001830574474297464,0.0015070306835696101,-0.1852474957704544,-1.367325782775879,-1.7121598720550537,-0.0015366177540272474,-0.045921359211206436,0.17186227440834045,0.0,0.0,0.0,0.0,-0.3000025448675481,0.51961377298239,0.5,-0.36227846145629883,-0.49197131395339966,0.002442019060254097,-0.005303604062646627,-0.004092457238584757,-0.007833779789507389,0.15433438122272491,0.3738013505935669,-1.0895793437957764,0.1173144057393074,0.1693989783525467,0.2344883531332016,0.0,0.0,0.0,0.0,-0.29999491024331576,-0.5196181808098181,0.5
2.089,TAKEOFF,abrupt,1.0,0.595062792301178,0.004691494628787041,-0.0009352981578558683,-0.004590671043843031,-0.018703343346714973,-0.0005656929570250213,0.2889356017112732,0.36310455203056335,4.946403980255127,0.008770623244345188,0.1268845647573471,0.16649498045444489,0.0,0.0,0.0,0.0,0.6,0.0,0.5,-0.415961891412735,0.6274079084396362,0.0016595360357314348,-0.00035226705949753523,-0.001830574474297464,0.0015070306835696101,-0.19682589173316956,-1.3762816190719604,-1.6822816133499146,0.1875079870223999,0.3748452067375183,-0.04912243410944939,0.0,0.0,0.0,0.0,-0.3000025448675481,0.51961377298239,0.5,-0.36227846145629883,-0.49197131395339966,0.002442019060254097,-0.005068385507911444,-0.004276961088180542,-0.007659760303795338,0.15433438122272491,0.3738013505935669,-1.0895793437957764,0.1173144057393074,0.1693989783525467,0.2344883531332016,0.0,0.0,0.0,0.0,-0.29999491024331576,-0.5196181808098181,0.5
2.117,TAKEOFF,abrupt,1.0,0.595062792301178,0.004691494628787041,-0.0009352981578558683,-0.003619585884734988,-0.017821358516812325,0.0005258034216240048,0.3215656876564026,0.30474647879600525,4.861770153045654,0.29875463247299194,-0.2363838106393814,0.1324472874403,0.0,0.0,0.0,0.0,0.6,0.0,0.5,-0.415961891412735,0.6274079084396362,0.0016595360357314348,0.0003333325730636716,8.358361810678616e-05,0.00875963643193245,-0.20528842508792877,-1.3798644542694092,-1.6467353105545044,0.03237973898649216,-0.04154229536652565,0.07509998977184296,0.0,0.0,0.0,0.0,-0.3000025448675481,0.51961377298239,0.5,-0.36227846145629883,-0.49197131395339966,0.002442019060254097,-0.005032397340983152,-0.0042898766696453094,-0.007424726150929928,0.0630294680595398,0.3491673171520233,-1.0944517850875854,-0.014964668080210686,-0.17290277779102325,-0.12759935855865479,0.0,0.0,0.0,0.0,-0.29999491024331576,-0.5196181808098181,0.5
2.13,TAKEOFF,abrupt,1.0,0.595062792301178,0.004691494628787041,-0.0009352981578558683,0.0031038287561386824,-0.023330122232437134,0.0026715167332440615,0.3215656876564026,0.30474647879600525,4.861770153045654,0.29875463247299194,-0.2363838106393814,0.1324472874403,0.0,0.0,0.0,0.0,0.6,0.0,0.5,-0.415961891412735,0.6274079084396362,0.0016595360357314348,0.0003333325730636716,8.358361810678616e-05,0.00875963643193245,-0.21121597290039062,-1.3787602186203003,-1.6126866340637207,0.016538722440600395,-0.19927914440631866,0.05152226239442825,0.0,0.0,0.0,0.0,-0.3000025448675481,0.51961377298239,0.5,-0.36227846145629883,-0.49197131395339966,0.002442019060254097,-0.005032397340983152,-0.0042898766696453094,-0.007424726150929928,0.0630294680595398,0.3491673171520233,-1.0944517850875854,-0.014964668080210686,-0.17290277779102325,-0.12759935855865479,0.0,0.0,0.0,0.0,-0.29999491024331576,-0.5196181808098181,0.5
2.149,TAKEOFF,abrupt,1.0,0.5993577241897583,0.002117946743965149,-0.00013992773892823607,-0.0018526375060901046,-0.024242553859949112,0.00022638123482465744,0.31934821605682373,0.34758585691452026,4.775672912597656,-0.020531319081783295,0.07991497963666916,0.06288370490074158,0.0,0.0,0.0,0.0,0.6,0.0,0.5,-0.41570717096328735,0.6278656721115112,0.003866346785798669,0.0007867112872190773,0.0010268311016261578,0.011882936581969261,-0.21329495310783386,-1.3793989419937134,-1.57891845703125,-0.023048577830195427,0.08437951654195786,0.04483389854431152,0.0,0.0,0.0,0.0,-0.3000025448675481,0.51961377298239,0.5,-0.36227846145629883,-0.49197131395339966,0.002442019060254097,-0.0015395422233268619,0.0032031501177698374,-0.0024817241355776787,0.09140173345804214,0.35204049944877625,-1.1579999923706055,-0.02600432187318802,0.14486412703990936,0.0578128844499588,47414.0,48234.0,47692.0,48000.0,-0.29999491024331576,-0.5196181808098181,0.5
2.169,TAKEOFF,abrupt,1.0,0.5993577241897583,0.002117946743965149,-0.00013992773892823607,-0.0018526375060901046,-0.024242553859949112,0.00022638123482465744,0.23992310464382172,0.41712066531181335,4.798586845397949,-0.13245941698551178,-0.00995288509875536,-1.9377374649047852,48805.0,46754.0,48482.0,46082.0,0.6,0.0,0.5,-0.41570717096328735,0.6278656721115112,0.003866346785798669,0.0008706693188287318,0.001143277040682733,0.011840922757983208,-0.21476434171199799,-1.3813921213150024,-1.5693385601043701,0.06835465878248215,0.02897101826965809,-2.1937432289123535,47673.0,47302.0,46838.0,48238.0,-0.3000025448675481,0.51961377298239,0.5,-0.3619368076324463,-0.49124452471733093,0.0032116251531988382,-0.0009348435560241342,0.004155599512159824,8.402627281611785e-05,0.09044600278139114,0.3483724594116211,-1.1962143182754517,-0.03135286271572113,-0.0564577616751194,0.3905669152736664,47768.0,48496.0,48038.0,48491.0,-0.29999491024331576,-0.5196181808098181,0.5
2.19,TAKEOFF,abrupt,1.0,0.5993577241897583,0.002117946743965149,-0.00013992773892823607,-0.014572073705494404,-0.01694968342781067,0.0008116492535918951,0.20562013983726501,0.46025460958480835,4.814688205718994,-0.4651297926902771,0.10886480659246445,2.6933443546295166,49215.0,47331.0,49192.0,46115.0,0.6,0.0,0.5,-0.41570717096328735,0.6278656721115112,0.003866346785798669,0.005627799313515425,0.0017453981563448906,0.012132395058870316,-0.21476434171199799,-1.3813921213150024,-1.5693385601043701,0.06835465878248215,0.02897101826965809,-2.1937432289123535,47536.0,48878.0,47353.0,48257.0,-0.3000025448675481,0.51961377298239,0.5,-0.3619368076324463,-0.49124452471733093,0.0032116251531988382,-0.0013467286480590701,0.003999797627329826,0.00010450690751895308,0.0912519320845604,0.34677571058273315,-1.2258917093276978,0.7278530597686768,-0.3812139928340912,-2.699169158935547,47768.0,48496.0,48038.0,48491.0,-0.29999491024331576,-0.5196181808098181,0.5
2.21,TAKEOFF,abrupt,1.0,0.5993577241897583,0.002117946743965149,-0.00013992773892823607,-0.019784843549132347,-0.012969239614903927,0.0011734006693586707,0.18965750932693481,0.45459628105163574,4.8175177574157715,2.1202478408813477,2.9008052349090576,-2.067777633666992,50061.0,48755.0,50300.0,47038.0,0.6,0.0,0.5,-0.41570717096328735,0.6278656721115112,0.003866346785798669,0.010460351593792439,0.0016588009893894196,0.011202721856534481,-0.20666050910949707,-1.3838096857070923,-1.5294591188430786,-0.12347572296857834,0.24817083775997162,6.0458550453186035,49205.0,48426.0,48029.0,50364.0,-0.3000025448675481,0.51961377298239,0.5,-0.3619368076324463,-0.49124452471733093,0.0032116251531988382,-0.0024589956738054752,0.003721424378454685,-0.00042889598989859223,0.08949242532253265,0.3515995442867279,-1.2580119371414185,0.254938542842865,0.25484246015548706,-1.193114995956421,49936.0,50878.0,50541.0,50678.0,-0.29999491024331576,-0.5196181808098181,0.5
2.23,TAKEOFF,abrupt,1.0,0.5951403975486755,0.005608461331576109,-0.0006529019447043538,-0.020115135237574577,-0.011617464944720268,-0.0008270228281617165,0.17375460267066956,0.4898371398448944,4.786675930023193,-4.326223850250244,-0.9980912208557129,-16.716882705688477,49841.0,49845.0,51223.0,48813.0,0.6,0.0,0.5,-0.41570717096328735,0.6278656721115112,0.003866346785798669,0.014387564733624458,0.0020680290181189775,0.012323488481342793,-0.20238515734672546,-1.3663502931594849,-1.5123549699783325,2.668529987335205,-3.1452300548553467,-2.7607927322387695,49657.0,50158.0,48607.0,50587.0,-0.3000025448675481,0.51961377298239,0.5,-0.3619368076324463,-0.49124452471733093,0.0032116251531988382,-0.003665108000859618,0.003439059481024742,-0.0006214022869244218,0.09122896939516068,0.34672442078590393,-1.2546935081481934,-1.5216788053512573,-1.2954685688018799,3.1447033882141113,51937.0,52748.0,52185.0,52623.0,-0.29999491024331576,-0.5196181808098181,0.5
2.249,TAKEOFF,abrupt,1.0,0.5951403975486755,0.005608461331576109,-0.0006529019447043538,-0.028373034670948982,-0.0108256284147501,0.0028106910176575184,0.17344751954078674,0.39038151502609253,4.460451602935791,-2.2246768474578857,-6.183315277099609,-19.8225154876709,50382.0,48782.0,51353.0,51458.0,0.6,0.0,0.5,-0.41570717096328735,0.6278656721115112,0.003866346785798669,0.017844822257757187,0.0025102458894252777,0.012399169616401196,-0.1848750114440918,-1.3497138023376465,-1.4979445934295654,0.26780015230178833,1.7501978874206543,-6.876400470733643,50907.0,49809.0,48896.0,51661.0,-0.3000025448675481,0.51961377298239,0.5,-0.3619368076324463,-0.49124452471733093,0.0032116251531988382,0.0033311874140053988,0.000179050286533311,0.0035441205836832523,0.10215473175048828,0.2941441833972931,-1.1359659433364868,-3.9790613651275635,-5.184812068939209,-9.437776565551758,54579.0,54362.0,53468.0,54289.0,-0.29999491024331576,-0.5196181808098181,0.5
2.269,TAKEOFF,abrupt,1.0,0.5951403975486755,0.005608461331576109,-0.0006529019447043538,-0.013571960851550102,-0.015103698708117008,-0.0028990593273192644,0.12674443423748016,0.4743184447288513,4.055854797363281,0.03518363833427429,4.5984063148498535,-27.642011642456055,51465.0,51814.0,50566.0,50257.0,0.6,0.0,0.5,-0.4152028262615204,0.6278896331787109,0.004608457442373037,0.0207540113478899,0.0030243191868066788,0.013859126716852188,-0.1620112955570221,-1.307278037071228,-1.5392489433288574,-4.911235332489014,3.8739078044891357,0.6506235003471375,50233.0,53218.0,49720.0,49698.0,-0.3000025448675481,0.51961377298239,0.5,-0.36011967062950134,-0.4907621443271637,0.0038747889921069145,-0.0009265507105737925,0.003580324584618211,0.002610380295664072,0.09636131674051285,0.28756487369537354,-1.2612488269805908,11.231009483337402,2.206851005554199,-13.038804054260254,58200.0,56306.0,50562.0,56075.0,-0.29999491024331576,-0.5196181808098181,0.5
2.289,TAKEOFF,abrupt,1.0,0.5951403975486755,0.005608461331576109,-0.0006529019447043538,-0.016679607331752777,-0.016215316951274872,-0.003233179682865739,0.14114756882190704,0.45695221424102783,3.4810423851013184,-0.27420511841773987,-7.686470031738281,-46.66572952270508,50262.0,54169.0,50911.0,50103.0,0.6,0.0,0.5,-0.4152028262615204,0.6278896331787109,0.004608457442373037,0.023673798888921738,0.003739261068403721,0.01574556529521942,-0.01988939195871353,-1.1428825855255127,-1.654137134552002,-12.614420890808105,11.593318939208984,-5.009500980377197,50430.0,45522.0,50235.0,56642.0,-0.3000025448675481,0.51961377298239,0.5,-0.36011967062950134,-0.4907621443271637,0.0038747889921069145,-0.0019078556215390563,0.0032993683125823736,0.004349181894212961,0.07216759771108627,0.30720269680023193,-1.4888111352920532,-5.309564113616943,-12.112907409667969,-4.380736827850342,56072.0,57685.0,58049.0,58364.0,-0.29999491024331576,-0.5196181808098181,0.5
2.309,TAKEOFF,abrupt,1.0,0.5951403975486755,0.005608461331576109,-0.0006529019447043538,-0.01835598237812519,-0.016590198501944542,-0.007401990704238415,0.05090286210179329,0.5366863012313843,2.5761256217956543,6.4733405113220215,16.917417526245117,-36.336788177490234,52664.0,52848.0,48403.0,52655.0,0.6,0.0,0.5,-0.4152028262615204,0.6278896331787109,0.004608457442373037,0.025761479511857033,0.004036713391542435,0.02209833450615406,-0.14105629920959473,-1.262670636177063,-1.6974897384643555,1.4098584651947021,-8.761147499084473,4.192584991455078,51318.0,51920.0,50581.0,51270.0,-0.3000025448675481,0.51961377298239,0.5,-0.36011967062950134,-0.4907621443271637,0.0038747889921069145,0.018916292116045952,-0.01364409551024437,0.007070792373269796,0.198464035987854,0.1600201576948166,-1.4701950550079346,1.477747917175293,0.6666696667671204,14.933417320251465,57874.0,57068.0,59153.0,58496.0,-0.29999491024331576,-0.5196181808098181,0.5
2.329,TAKEOFF,abrupt,1.0,0.5954708456993103,0.004663130734115839,-0.00023457319184672087,-0.0337633416056633,-0.01737961359322071,-0.0018703388050198555,0.18436406552791595,0.49960222840309143,1.8021423816680908,8.10775375366211,13.123451232910156,-32.54635238647461,51280.0,53172.0,50810.0,52372.0,0.6,0.0,0.5,-0.4152028262615204,0.6278896331787109,0.004608457442373037,0.0285041444003582,0.004307281691581011,0.04019756615161896,-0.11731906980276108,-0.8807259798049927,-1.5626956224441528,8.420503616333008,-43.962684631347656,11.917411804199219,49816.0,53317.0,53020.0,49539.0,-0.3000025448675481,0.51961377298239,0.5,-0.36011967062950134,-0.4907621443271637,0.0038747889921069145,0.00016834010602906346,0.0019510408164933324,0.0045756078325212,0.18761296570301056,0.23446322977542877,-1.198158860206604,-2.845271348953247,7.723026752471924,18.353023529052734,59565.0,57506.0,61422.0,56135.0,-0.29999491024331576,-0.5196181808098181,0.5
2.349,TAKEOFF,abrupt,1.0,0.5954708456993103,0.004663130734115839,-0.00023457319184672087,-0.03494894132018089,-0.015649938955903053,0.011443207040429115,0.3670452833175659,0.22891226410865784,1.1497372388839722,-4.629421234130859,0.32589656114578247,-26.944168090820312,49873.0,53682.0,52546.0,52007.0,0.6,0.0,0.5,-0.41431304812431335,0.627994954586029,0.00603282218798995,0.0285041444003582,0.004307281691581011,0.04019756615161896,-0.11731906980276108,-0.8807259798049927,-1.5626956224441528,8.420503616333008,-43.962684631347656,11.917411804199219,51275.0,55287.0,52319.0,46034.0,-0.3000025448675481,0.51961377298239,0.5,-0.36011967062950134,-0.4907621443271637,0.0038747889921069145,-0.004276581108570099,-0.005090595688670874,0.013626951724290848,0.13472120463848114,0.0646592304110527,-0.8308559060096741,-3.8549113273620605,3.242069721221924,20.875911712646484,60436.0,55885.0,62227.0,57132.0,-0.29999491024331576,-0.5196181808098181,0.5
2.37,TAKEOFF,abrupt,1.0,0.5954708456993103,0.004663130734115839,-0.00023457319184672087,-0.03494894132018089,-0.015649938955903053,0.011443207040429115,0.11947226524353027,0.2628636062145233,0.644049882888794,-2.8942737579345703,-12.58283805847168,-24.106670379638672,50496.0,54327.0,51982.0,51544.0,0.6,0.0,0.5,-0.41431304812431335,0.627994954586029,0.00603282218798995,0.026019638404250145,0.0037858709692955017,0.07462349534034729,0.15119102597236633,0.046388596296310425,-1.2818156480789185,33.569705963134766,-55.555450439453125,18.603132247924805,51645.0,55680.0,52163.0,44199.0,-0.3000025448675481,0.51961377298239,0.5,-0.36125853657722473,-0.4913172721862793,0.004946443717926741,-0.008242632262408733,-0.00011400536459404975,0.031785547733306885,0.013192892074584961,0.0709313228726387,-0.391414999961853,-3.047086000442505,-9.637799263000488,28.62531280517578,60436.0,55885.0,62227.0,57132.0,-0.29999491024331576,-0.5196181808098181,0.5
2.39,TAKEOFF,abrupt,1.0,0.5954708456993103,0.004663130734115839,-0.00023457319184672087,-0.04777158796787262,0.007774329744279385,0.036279693245887756,0.11947226524353027,0.2628636062145233,0.644049882888794,-2.8942737579345703,-12.58283805847168,-24.106670379638672,51407.0,53662.0,51502.0,51706.0,-0.2633299494452644,-0.5391264580088372,0.5,-0.41431304812431335,0.627994954586029,0.00603282218798995,0.026569603011012077,-0.02090725302696228,0.107129767537117,0.8649994134902954,1.1637239456176758,-0.8533152341842651,56.62080001831055,-58.71066665649414,21.50956916809082,51645.0,55680.0,52163.0,44199.0,0.5984441777868567,0.043180621498689176,0.5,-0.36125853657722473,-0.4913172721862793,0.004946443717926741,-0.008242632262408733,-0.00011400536459404975,0.031785547733306885,0.013192892074584961,0.0709313228726387,-0.391414999961853,-3.047086000442505,-9.637799263000488,28.62531280517578,62331.0,56399.0,62555.0,54359.0,-0.3380003603901116,0.4957375882219893,0.5
2.409,TAKEOFF,abrupt,1.0,0.5954708456993103,0.004663130734115839,-0.00023457319184672087,-0.027448413893580437,0.01564961113035679,0.07465323805809021,-0.00785986427217722,0.35706087946891785,0.20462045073509216,4.539057731628418,-11.79940128326416,-14.760537147521973,51407.0,53662.0,51502.0,51706.0,0.6,0.0,0.5,-0.41431304812431335,0.627994954586029,0.00603282218798995,0.026569603011012077,-0.02090725302696228,0.107129767537117,2.1502442359924316,2.256340742111206,-0.558153510093689,61.707054138183594,-32.07355499267578,21.336902618408203,53754.0,55577.0,49834.0,43299.0,-0.3000025448675481,0.51961377298239,0.5,-0.36125853657722473,-0.4913172721862793,0.004946443717926741,-0.009303458034992218,-0.0007479434134438634,0.06954708695411682,0.045204415917396545,0.26443642377853394,0.20495544373989105,25.492321014404297,-4.993977069854736,29.490209579467773,62331.0,56399.0,62555.0,54359.0,-0.29999491024331576,-0.5196181808098181,0.5
2.429,TAKEOFF,abrupt,1.0,0.5954708456993103,0.004663130734115839,-0.00023457319184672087,-0.027448413893580437,0.01564961113035679,0.07465323805809021,-0.0390828512609005,0.5571168661117554,-0.06380674988031387,2.8716254234313965,-14.811080932617188,-4.806310653686523,49898.0,53620.0,53000.0,50614.0,0.6,0.0,0.5,-0.41431304812431335,0.627994954586029,0.00603282218798995,0.011155237443745136,-0.026484323665499687,0.14812853932380676,2.1502442359924316,2.256340742111206,-0.558153510093689,61.707054138183594,-32.07355499267578,21.336902618408203,53413.0,52347.0,49707.0,47225.0,-0.3000025448675481,0.51961377298239,0.5,-0.36125853657722473,-0.4913172721862793,0.004946443717926741,-0.010208580642938614,-0.0030014836229383945,0.1141638308763504,0.6864425539970398,-0.051193736493587494,1.1854816675186157,7.780246257781982,36.12123489379883,29.518314361572266,61490.0,59047.0,58839.0,56492.0,-0.29999491024331576,-0.5196181808098181,0.5
2.452,TAKEOFF,abrupt,1.0,0.5939818620681763,0.008766237646341324,0.004277760162949562,-0.02132183127105236,0.023677170276641846,0.11734434962272644,-0.0390828512609005,0.5571168661117554,-0.06380674988031387,2.8716254234313965,-14.811080932617188,-4.806310653686523,50516.0,53276.0,52633.0,49652.0,0.6,0.0,0.5,-0.41431304812431335,0.627994954586029,0.00603282218798995,-0.00011095947411376983,-0.04286058619618416,0.19150474667549133,3.2671830654144287,2.9394168853759766,-0.13088425993919373,28.198579788208008,-2.379225254058838,24.253520965576172,50767.0,51325.0,52232.0,47184.0,-0.3000025448675481,0.51961377298239,0.5,-0.36125853657722473,-0.4913172721862793,0.004946443717926741,0.00257663382217288,-0.012540456838905811,0.1479014754295349,0.6864425539970398,-0.051193736493587494,1.1854816675186157,7.780246257781982,36.12123489379883,29.518314361572266,65535.0,49959.0,59914.0,54620.0,-0.29999491024331576,-0.5196181808098181,0.5
2.469,TAKEOFF,abrupt,1.0,0.5939818620681763,0.008766237646341324,0.004277760162949562,-0.03474729135632515,0.012476753443479538,0.16011078655719757,0.12106168270111084,0.9411113262176514,-0.18450045585632324,16.268556594848633,-20.45435905456543,2.0305068492889404,50784.0,52965.0,51994.0,48792.0,0.6,0.0,0.5,-0.41431304812431335,0.627994954586029,0.00603282218798995,-0.01396985724568367,-0.05836695060133934,0.2359963059425354,3.7311418056488037,3.0639095306396484,0.2590814232826233,-17.95927619934082,-4.520068168640137,25.15788459777832,50767.0,51325.0,52232.0,47184.0,-0.3000025448675481,0.51961377298239,0.5,-0.36125853657722473,-0.4913172721862793,0.004946443717926741,-0.0019113048911094666,-0.006250426638871431,0.200235053896904,0.6929490566253662,-0.4486866891384125,1.4811573028564453,-17.33846092224121,40.21080017089844,25.004121780395508,61650.0,52956.0,57649.0,59504.0,-0.29999491024331576,-0.5196181808098181,0.5
2.489,TAKEOFF,abrupt,1.0,0.5939818620681763,0.008766237646341324,0.004277760162949562,-0.03865404799580574,-0.00038386418600566685,0.20796321332454681,0.48813939094543457,1.3133738040924072,-0.20163042843341827,17.253511428833008,-16.700763702392578,6.457274436950684,50784.0,52965.0,51994.0,48792.0,0.6,0.0,0.5,-0.41518935561180115,0.6210169196128845,0.02034188061952591,-0.01396985724568367,-0.05836695060133934,0.2359963059425354,3.232701063156128,3.2302379608154297,0.6731718182563782,-58.46550750732422,-4.229881763458252,25.03238868713379,48716.0,49617.0,53365.0,48157.0,-0.3000025448675481,0.51961377298239,0.5,-0.35837385058403015,-0.49437418580055237,0.01832105591893196,-0.0019113048911094666,-0.006250426638871431,0.200235053896904,0.2611217498779297,-1.1555891036987305,2.043574571609497,-23.678874969482422,28.692548751831055,24.32080078125,60428.0,53437.0,57184.0,58386.0,-0.29999491024331576,-0.5196181808098181,0.5
2.509,TAKEOFF,abrupt,1.0,0.5939818620681763,0.008766237646341324,0.004277760162949562,-0.04524964839220047,-0.0036847528535872698,0.24291738867759705,0.8864327669143677,1.6854462623596191,-0.11315080523490906,12.032797813415527,-24.196508407592773,8.040776252746582,49323.0,53565.0,52821.0,46870.0,0.6,0.0,0.5,-0.41518935561180115,0.6210169196128845,0.02034188061952591,-0.02742794156074524,-0.07233284413814545,0.2757687568664551,3.232701063156128,3.2302379608154297,0.6731718182563782,-58.46550750732422,-4.229881763458252,25.03238868713379,47723.0,48847.0,53795.0,47939.0,-0.3000025448675481,0.51961377298239,0.5,-0.35837385058403015,-0.49437418580055237,0.01832105591893196,0.003000597469508648,-0.008092240430414677,0.25268325209617615,-0.048483747988939285,-1.6818174123764038,2.4842982292175293,13.948912620544434,12.659274101257324,26.097679138183594,60964.0,55093.0,55759.0,54823.0,-0.29999491024331576,-0.5196181808098181,0.5
2.529,TAKEOFF,abrupt,1.0,0.5939818620681763,0.008766237646341324,0.004277760162949562,-0.053425587713718414,-0.008124901913106441,0.27533578872680664,1.1482720375061035,2.1337127685546875,0.04349610581994057,-2.8769290447235107,-16.965211868286133,9.833311080932617,49130.0,52259.0,52529.0,47720.0,0.6,0.0,0.5,-0.41518935561180115,0.6210169196128845,0.02034188061952591,-0.04087305814027786,-0.08206513524055481,0.31770744919776917,2.0482330322265625,3.291832447052002,1.128371000289917,-65.20285034179688,-6.762890815734863,23.972131729125977,47374.0,48719.0,53361.0,47155.0,-0.3000025448675481,0.51961377298239,0.5,-0.35837385058403015,-0.49437418580055237,0.01832105591893196,0.011591150425374508,-0.007861803285777569,0.30855804681777954,0.6669529676437378,-2.146806240081787,3.302971124649048,31.715415954589844,0.8214166164398193,29.440570831298828,60964.0,55093.0,55759.0,54823.0,-0.29999491024331576,-0.5196181808098181,0.5
2.553,TAKEOFF,abrupt,1.0,0.5939818620681763,0.008766237646341324,0.004277760162949562,-0.0632629320025444,-0.01257119420915842,0.3073022961616516,1.081816554069519,2.5484092235565186,0.23358114063739777,-26.30898666381836,-18.684633255004883,11.742042541503906,47524.0,51228.0,53585.0,47864.0,-0.22671159609312863,-0.555519443581326,0.5,-0.41518935561180115,0.6210169196128845,0.02034188061952591,-0.050437700003385544,-0.08660206198692322,0.3527856469154358,0.7325742840766907,3.3926501274108887,1.5833684206008911,-52.42048645019531,-4.893651962280273,18.782493591308594,49114.0,49502.0,51222.0,45496.0,0.5942205470998253,0.08307792368845238,0.5,-0.35837385058403015,-0.49437418580055237,0.01832105591893196,0.02845722809433937,-0.007378705777227879,0.3664693236351013,0.6669529676437378,-2.146806240081787,3.302971124649048,31.715415954589844,0.8214166164398193,29.440570831298828,63463.0,51998.0,57957.0,47753.0,-0.3703747136434322,0.472040857864598,0.5
